Time(ms),AccelX,AccelY,AccelZ,GyroX,GyroY,GyroZ,MagX,MagY,MagZ
2978,1.09,-0.98,9.84,0.02,-0.04,0.01,7.41,-17.06,-43.16
3116,1.13,-0.91,9.76,0.02,-0.05,-0.01,7.03,-17.38,-43.82
3252,1.12,-0.87,9.80,0.02,-0.04,-0.01,7.06,-16.63,-44.39
3390,1.14,-0.85,9.91,0.01,-0.04,-0.00,6.87,-17.25,-44.15
3528,1.15,-0.84,9.77,0.01,-0.05,-0.00,7.02,-17.13,-43.28
3665,1.11,-1.02,9.69,-0.00,-0.05,0.01,7.72,-16.52,-43.44
3801,1.11,-0.96,9.81,0.01,-0.05,0.00,6.96,-17.09,-43.74
3938,1.12,-0.95,9.77,0.01,-0.04,-0.01,7.16,-16.68,-42.71
4082,1.14,-0.99,9.89,0.01,-0.04,-0.01,7.02,-16.47,-43.55
4218,1.06,-0.91,9.95,0.01,-0.05,-0.02,6.49,-17.32,-43.00
4355,1.12,-0.98,9.75,-0.02,-0.00,-0.00,7.75,-17.41,-43.47
4492,1.21,-0.79,9.85,0.01,-0.08,0.01,7.13,-17.25,-43.12
4628,1.17,-0.85,9.72,0.01,-0.06,-0.01,7.29,-17.49,-43.82
4765,1.10,-0.94,9.93,0.01,-0.04,0.00,7.16,-16.95,-44.07
4901,1.18,-0.82,10.03,0.02,-0.05,-0.02,7.59,-17.14,-43.51
5037,1.13,-0.90,9.78,0.02,-0.05,-0.00,7.37,-17.29,-43.50
5172,1.12,-0.89,9.87,0.02,-0.04,-0.00,6.72,-17.45,-44.36
5313,1.14,-0.79,9.77,0.01,-0.04,-0.01,7.21,-17.20,-44.37
5451,1.07,-0.86,9.79,-0.01,-0.03,-0.03,7.26,-17.00,-43.63
5586,1.01,-1.19,9.66,0.05,-0.05,-0.01,6.93,-16.85,-43.35
5722,1.11,-0.92,9.96,0.02,-0.05,0.01,6.59,-17.38,-43.31
5858,1.13,-0.82,9.88,0.02,-0.07,0.00,7.35,-17.07,-43.70
5994,1.10,-0.91,9.80,-0.00,-0.06,-0.00,7.03,-17.57,-42.97
6129,1.08,-0.91,9.80,0.01,-0.04,-0.01,6.61,-16.76,-44.10
6265,1.13,-0.91,9.89,0.02,-0.04,0.00,6.75,-16.72,-43.28
6401,1.11,-0.93,9.85,0.04,-0.04,0.01,6.55,-17.66,-42.85
6542,1.10,-0.91,9.97,0.02,-0.04,-0.01,6.90,-17.51,-43.10
6678,1.21,-0.75,9.76,0.01,-0.05,0.00,7.02,-17.93,-44.37
6814,1.15,-0.80,9.82,0.01,-0.04,-0.01,6.52,-16.78,-43.01
6950,1.14,-0.80,9.84,-0.00,-0.05,-0.02,6.68,-17.17,-42.33
7085,1.16,-0.83,9.81,-0.00,-0.05,-0.00,6.31,-17.86,-43.89
7221,1.13,-0.85,9.76,0.02,-0.04,-0.00,7.50,-17.41,-42.14
7357,1.07,-0.82,10.11,0.03,-0.02,-0.02,6.50,-18.17,-42.24
7493,1.07,-0.81,9.86,0.01,-0.05,-0.01,7.21,-17.20,-43.29
7628,1.15,-0.83,9.78,-0.00,-0.05,0.01,6.64,-17.45,-43.95
7770,1.10,-0.90,9.87,0.04,-0.06,0.01,6.84,-17.30,-42.25
7906,1.21,-0.69,9.76,-0.00,-0.03,-0.02,6.55,-17.54,-44.65
8041,1.19,-0.77,9.81,-0.00,-0.05,-0.01,7.03,-17.49,-43.73
8177,1.17,-0.76,9.86,0.02,-0.04,0.00,6.68,-17.33,-44.50
8313,1.19,-0.69,9.87,0.01,-0.05,-0.02,6.99,-17.83,-43.48
8449,1.16,-0.85,9.77,0.01,-0.05,-0.01,6.61,-17.86,-43.64
8584,1.15,-0.84,9.86,0.01,-0.04,0.00,6.21,-17.49,-42.34
8720,1.15,-0.81,9.81,0.02,-0.06,-0.01,6.50,-17.04,-42.37
8856,1.18,-0.81,9.84,0.02,-0.05,-0.00,6.62,-17.55,-43.01
8997,1.20,-0.78,9.93,-0.00,-0.04,-0.00,6.45,-17.13,-42.63
9132,1.20,-0.80,9.80,0.00,-0.05,-0.00,6.18,-17.35,-41.98
9268,1.20,-0.74,9.87,0.01,-0.06,-0.03,7.40,-18.31,-41.87
9404,1.19,-0.77,9.76,-0.00,-0.05,0.00,6.47,-16.92,-42.21
9540,1.11,-0.88,9.96,0.05,-0.03,0.02,6.20,-17.99,-43.85
9675,1.21,-0.76,9.90,0.00,-0.04,-0.00,6.05,-17.20,-42.85
9811,1.12,-0.71,9.75,0.01,-0.04,-0.01,6.14,-18.11,-42.65
9947,1.12,-0.79,9.75,-0.00,-0.04,0.00,7.29,-17.68,-42.63
10087,1.13,-0.79,9.80,-0.02,-0.04,-0.00,6.72,-17.42,-42.47
10224,1.16,-0.72,9.93,-0.01,-0.04,-0.01,7.59,-16.53,-43.20
10360,1.16,-0.93,9.86,-0.03,-0.04,0.01,6.64,-16.59,-42.03
10496,1.09,-1.10,9.84,0.01,-0.06,-0.02,6.64,-16.34,-41.54
10631,0.93,-1.33,9.85,0.17,0.02,-0.34,6.39,-17.95,-43.13
10767,0.71,-0.65,9.96,0.15,0.12,-1.19,7.91,-20.04,-41.93
10903,1.18,-0.14,9.13,0.55,0.00,-1.37,10.67,-25.48,-43.44
11039,-0.35,0.06,7.83,1.07,-0.35,-1.93,15.97,-31.03,-41.06
11174,-0.28,3.15,11.32,0.63,0.11,-2.48,21.05,-33.24,-35.90
11316,-0.35,4.04,8.59,1.13,-0.95,-2.22,21.65,-36.41,-27.64
11452,-0.63,4.21,7.11,0.58,-0.12,-1.28,21.92,-40.54,-21.05
11587,-1.72,5.78,6.39,2.18,-0.19,-1.53,24.79,-45.63,-12.50
11723,-3.63,8.37,4.58,3.38,-0.61,-1.76,30.06,-46.74,0.12
11859,-5.11,8.39,2.10,0.78,-0.65,-1.35,35.36,-43.60,8.17
11995,-6.45,8.38,2.49,-0.13,-0.22,-1.18,40.28,-40.81,12.07
12130,-6.82,7.34,2.91,0.01,-0.03,-0.69,42.82,-38.23,13.01
12266,-7.35,6.06,3.15,-0.41,0.03,-0.47,44.11,-36.83,13.15
12402,-7.65,5.89,2.87,-0.45,0.11,-0.40,45.57,-36.17,13.20
12543,-7.93,5.43,2.68,-0.28,0.23,-0.29,45.38,-35.68,14.51
12679,-8.15,4.95,2.78,0.12,0.04,-0.43,46.61,-34.84,14.05
12815,-8.57,3.97,2.70,-0.11,0.01,-0.38,47.28,-33.97,13.90
12951,-8.50,4.27,3.46,-1.36,0.33,-0.21,47.35,-34.17,13.37
13086,-8.68,3.92,2.74,0.23,-0.05,-0.00,47.60,-34.05,14.37
13222,-8.82,3.69,2.36,-0.01,0.00,-0.00,47.30,-34.13,15.38
13358,-8.67,3.77,2.32,0.07,-0.02,0.03,48.22,-34.11,15.58
13494,-8.68,3.73,2.73,0.00,-0.03,0.05,46.93,-33.79,15.19
13635,-8.73,3.70,2.44,0.01,-0.08,0.04,47.57,-34.19,14.54
13771,-8.71,3.96,2.19,0.07,-0.07,0.03,47.25,-34.17,15.27
13907,-8.68,3.93,2.47,0.05,-0.04,0.04,47.69,-33.84,14.37
14042,-8.61,3.90,2.49,-0.00,-0.07,0.03,47.16,-34.38,14.66
14178,-8.50,4.08,2.46,0.01,-0.07,0.01,47.66,-34.76,14.97
14314,-8.58,3.89,2.52,0.07,-0.09,0.01,47.09,-34.32,14.45
14450,-8.70,3.87,2.31,0.02,-0.05,0.04,47.76,-34.73,15.05
14585,-8.57,3.89,2.60,-0.00,-0.05,-0.01,47.18,-34.58,15.32
14721,-8.54,4.02,2.60,0.05,-0.03,0.02,48.03,-35.06,15.17
14863,-8.61,4.14,2.53,0.02,-0.06,0.01,47.12,-34.68,14.16
14999,-8.44,4.00,2.55,0.05,-0.05,0.02,46.62,-34.71,14.07
15134,-8.54,4.25,2.56,0.02,-0.06,0.03,47.90,-35.33,13.56
15270,-8.49,4.00,2.50,-0.00,-0.05,0.00,47.69,-35.22,14.18
15406,-8.46,4.08,2.44,0.02,-0.03,0.01,47.75,-35.50,13.12
15541,-8.44,4.15,2.50,0.03,-0.06,0.02,47.33,-36.17,14.16
15677,-8.42,4.39,2.53,0.04,-0.08,0.02,47.40,-34.90,13.97
15813,-8.54,4.23,2.53,0.00,-0.05,-0.00,47.49,-35.30,13.43
15949,-8.48,4.18,2.54,-0.02,-0.04,0.01,46.59,-35.17,13.58
16090,-8.47,4.29,2.56,0.03,-0.04,-0.01,46.77,-35.68,12.26
16226,-8.48,4.10,2.58,0.01,-0.05,0.00,47.40,-35.55,12.89
16362,-8.42,4.21,2.72,-0.02,-0.02,-0.02,48.04,-35.53,13.36
16498,-8.43,4.20,2.68,0.01,-0.05,0.00,47.71,-35.76,14.15
16633,-8.41,4.16,2.59,0.02,-0.05,0.02,48.28,-35.60,13.23
16769,-8.43,4.16,2.60,0.02,-0.05,-0.01,48.57,-35.75,12.06
16905,-8.45,4.24,2.61,0.03,-0.04,-0.02,49.37,-36.14,13.43
17041,-8.43,4.25,2.59,-0.01,-0.04,-0.01,48.54,-36.19,11.41
17176,-8.52,4.24,2.49,-0.01,-0.04,-0.01,50.03,-36.55,11.33
17318,-8.47,4.18,2.55,-0.02,-0.03,-0.01,50.47,-37.23,11.47
17454,-8.47,4.17,2.77,-0.01,-0.04,-0.01,50.66,-36.51,11.72
17589,-8.48,4.20,2.49,0.00,-0.05,-0.01,51.04,-36.71,10.64
17725,-8.47,4.17,2.61,-0.00,-0.04,-0.01,50.80,-37.49,11.12
17861,-8.45,4.18,2.60,0.03,-0.04,-0.01,50.61,-36.16,12.00
17997,-8.45,4.17,2.62,0.01,-0.05,-0.01,50.31,-36.82,10.83
18132,-8.41,4.13,2.62,0.01,-0.04,-0.03,50.82,-36.96,11.71
18268,-8.54,4.04,2.54,-0.02,-0.02,-0.08,50.32,-37.21,10.52
18409,-8.48,3.98,2.71,0.02,-0.01,-0.06,50.75,-36.13,11.09
18544,-8.57,3.93,2.50,0.01,-0.03,-0.02,50.54,-36.36,10.67
18680,-8.61,3.94,2.54,0.04,-0.01,-0.03,50.75,-36.51,11.09
18816,-8.68,3.83,2.39,0.03,-0.02,-0.02,51.18,-36.44,12.10
18952,-8.68,3.84,2.54,0.04,-0.03,-0.06,50.42,-36.17,12.19
19087,-8.66,3.92,2.36,0.04,-0.02,-0.01,50.86,-35.76,12.09
19229,-8.66,3.67,2.37,0.05,0.03,-0.03,50.77,-35.60,12.86
19365,-8.80,4.12,3.95,0.29,-0.14,0.05,51.10,-35.34,14.03
19500,-8.83,4.25,6.87,0.04,-1.00,0.04,51.67,-34.96,10.63
19641,-8.99,4.33,5.36,0.09,-1.48,0.25,52.95,-36.79,2.76
19777,-8.12,4.63,6.12,-0.28,-1.60,0.17,53.84,-38.40,-7.41
19913,-6.53,4.36,5.82,-0.63,-1.50,0.16,52.34,-39.90,-17.14
20048,-4.62,4.14,7.59,-0.79,-1.25,0.21,47.84,-39.96,-26.92
20184,-3.16,3.35,7.89,0.12,-1.08,0.19,43.74,-39.89,-32.53
20320,-1.73,2.91,8.70,-0.18,-0.74,0.23,38.78,-40.12,-37.77
20456,-0.74,2.61,9.51,-0.36,-0.69,0.19,34.65,-39.18,-39.26
20591,0.11,2.30,9.06,-0.14,-0.66,0.10,30.11,-37.64,-42.12
20727,0.98,1.89,9.04,-0.24,-0.56,0.12,26.85,-36.41,-44.62
20869,1.69,1.63,8.35,-0.35,-0.35,0.06,23.95,-34.87,-45.56
21004,2.04,1.50,8.47,-0.30,-0.15,-0.08,22.84,-34.22,-45.29
21140,2.22,1.13,9.44,-0.15,-0.10,-0.08,21.81,-33.85,-46.26
21276,2.27,1.45,9.45,-0.00,-0.06,-0.08,21.56,-34.01,-45.24
21412,2.27,1.21,9.38,0.01,-0.07,-0.00,22.05,-33.06,-46.40
21547,2.32,1.49,9.22,0.03,-0.00,-0.00,22.13,-32.78,-45.63
21683,2.22,1.20,9.61,0.01,-0.02,0.02,21.82,-32.83,-46.83
21819,2.18,1.32,9.49,0.01,-0.02,0.07,22.30,-33.60,-46.17
21976,2.17,1.35,9.80,0.01,-0.05,-0.01,21.54,-33.95,-45.35
22116,2.23,1.32,9.47,0.03,-0.04,-0.04,21.65,-33.37,-45.81
22255,2.23,1.37,9.33,0.04,-0.08,0.01,20.84,-33.43,-46.17
22395,2.28,1.25,9.59,0.02,-0.01,-0.04,21.51,-33.72,-46.33
22535,2.25,1.66,9.59,0.04,-0.04,-0.04,22.45,-34.62,-45.85
22674,2.18,1.41,9.55,0.06,-0.04,0.02,21.19,-34.67,-45.67
22814,2.22,1.59,9.59,0.05,-0.09,-0.00,21.73,-34.48,-45.51
22954,2.24,1.47,9.26,0.05,-0.06,0.01,21.27,-35.09,-45.51
23093,2.40,1.83,9.64,0.08,-0.03,-0.02,21.70,-35.37,-45.02
23239,2.30,1.49,9.72,0.03,-0.06,0.02,21.47,-34.60,-45.47
23378,2.36,1.70,9.60,-0.00,-0.07,0.04,20.40,-35.15,-45.73
23518,2.34,1.47,9.42,-0.01,-0.04,0.08,20.29,-34.89,-45.70
23658,2.39,1.73,9.54,-0.01,-0.06,-0.01,20.75,-34.64,-44.75
23797,2.39,1.55,9.33,0.00,-0.07,0.02,20.49,-34.23,-45.10
23937,2.44,1.52,9.46,0.03,-0.03,0.00,20.65,-34.62,-44.88
24077,2.40,1.55,9.36,0.02,-0.03,0.01,20.64,-34.68,-44.75
24216,2.40,1.62,9.50,0.00,-0.07,0.02,20.65,-35.12,-45.57
24356,2.47,1.61,9.38,0.02,-0.07,-0.02,20.97,-34.89,-45.24
24500,2.51,1.35,9.53,-0.01,-0.06,0.07,20.49,-34.61,-43.85
24640,2.47,1.52,9.32,0.03,-0.02,-0.01,20.55,-34.48,-44.81
24780,2.51,1.65,9.67,0.02,-0.03,-0.04,20.11,-34.62,-44.94
24919,2.43,1.51,9.61,0.00,-0.05,-0.00,20.24,-34.83,-45.21
25059,2.44,1.54,9.53,0.01,-0.05,0.01,20.40,-34.58,-45.83
25199,2.44,1.52,9.24,0.02,-0.06,0.01,20.34,-35.18,-46.16
25338,2.40,1.50,9.33,0.04,-0.05,0.01,21.09,-35.06,-45.59
25478,2.47,1.33,9.54,0.03,-0.01,-0.02,20.96,-34.38,-44.96
25618,2.34,1.57,9.49,-0.02,-0.01,0.01,21.67,-34.84,-44.42
25763,2.33,1.66,9.54,0.01,-0.06,-0.02,21.47,-35.15,-45.76
25903,2.34,1.57,9.77,0.01,-0.02,-0.06,21.84,-34.95,-45.66
26042,2.31,1.85,9.47,0.04,-0.06,0.05,21.41,-34.51,-45.72
26189,2.31,1.68,9.66,0.05,-0.02,-0.01,21.89,-34.35,-45.22
26329,2.27,1.57,9.45,0.00,-0.07,-0.03,22.13,-35.71,-45.59
26468,2.19,1.82,9.29,-0.01,-0.03,-0.02,21.63,-35.02,-45.28
26608,2.26,1.68,9.56,-0.00,-0.02,-0.00,22.14,-35.24,-45.85
26748,2.28,1.63,9.53,-0.04,-0.00,0.02,22.16,-34.83,-45.81
26892,2.20,1.44,9.70,-0.06,-0.00,0.05,21.86,-34.19,-46.49
27032,2.17,1.58,9.49,0.02,-0.03,-0.07,23.00,-34.42,-46.11
27171,2.09,1.69,9.61,0.03,-0.01,-0.01,23.36,-34.79,-46.23
27311,2.11,1.52,9.77,-0.01,-0.01,0.03,23.87,-34.46,-46.13
27451,2.06,1.52,9.67,0.01,-0.04,-0.01,23.56,-34.58,-45.29
27590,2.01,1.53,9.50,0.02,-0.07,-0.03,23.18,-34.46,-45.47
27730,2.04,1.58,9.58,0.02,-0.06,-0.02,23.28,-34.38,-41.60
27870,2.05,1.52,9.56,0.01,-0.05,0.01,23.17,-34.87,-46.19
28009,2.02,1.55,9.57,0.01,-0.04,-0.00,22.61,-34.89,-44.33
28155,2.01,1.60,9.56,-0.01,-0.04,-0.01,23.18,-34.96,-45.75
28294,2.09,1.63,10.03,0.03,-0.14,0.03,23.06,-34.36,-46.08
28434,1.95,3.11,10.13,1.74,-1.05,0.61,19.00,-38.25,-43.67
28574,3.93,4.80,8.31,1.16,-1.38,1.38,8.18,-44.01,-38.18
28713,6.35,2.56,7.30,0.85,-1.30,1.43,-4.12,-43.41,-29.95
28853,7.77,3.13,5.10,0.41,-1.21,1.15,-12.93,-41.38,-22.84
28993,8.67,0.06,3.11,0.05,-1.19,1.09,-19.95,-34.73,-15.86
29132,9.25,-0.48,2.03,0.21,-0.90,0.84,-22.73,-30.12,-10.39
29272,9.61,-1.29,0.37,0.50,-0.64,0.61,-24.38,-26.10,-5.10
29417,9.28,-2.19,0.55,0.22,-0.47,0.38,-25.90,-23.65,-3.49
29557,9.51,-2.38,-0.42,-0.06,-0.29,0.18,-26.26,-22.13,-1.56
29697,9.47,-2.28,-0.36,0.06,0.02,0.04,-26.16,-20.51,-0.57
29836,9.57,-2.26,0.09,0.03,-0.00,0.02,-25.93,-20.55,-1.52
29976,9.55,-2.28,0.34,0.05,-0.13,0.02,-25.50,-20.53,-0.34
30116,9.54,-1.85,0.11,0.04,-0.02,0.01,-26.43,-21.00,-0.29
30255,9.46,-2.26,-0.17,0.03,-0.11,0.03,-26.40,-20.17,0.34
30395,9.52,-2.30,-0.10,0.02,-0.07,0.04,-25.94,-20.08,-0.64
30541,9.48,-2.20,-0.05,0.03,-0.06,-0.05,-25.75,-19.67,-0.01
30680,9.65,-1.98,-0.44,0.06,-0.05,0.01,-25.56,-20.56,0.25
30820,9.42,-2.22,-0.14,0.08,-0.05,0.01,-25.74,-19.80,-1.18
30959,9.48,-2.12,-0.06,0.04,-0.05,0.00,-26.02,-20.08,0.32
31099,9.52,-2.33,0.20,0.02,-0.09,-0.02,-25.80,-20.08,0.00
31240,9.61,-2.04,0.11,0.02,0.01,0.02,-26.06,-19.75,0.58
31379,9.63,-2.08,-0.14,0.01,-0.06,0.01,-26.50,-19.51,0.07
31519,9.45,-2.34,-0.07,0.01,-0.07,0.02,-26.72,-19.15,1.75
31659,9.66,-2.27,0.23,0.02,-0.01,0.03,-26.38,-19.28,1.15
31804,9.43,-2.25,-0.29,0.02,-0.07,0.01,-25.61,-19.83,-0.42
31944,9.59,-2.40,0.27,0.03,-0.03,0.02,-26.24,-18.81,0.18
32083,9.47,-2.44,-0.13,0.00,-0.10,0.01,-26.56,-18.55,0.18
32223,9.56,-2.36,0.00,-0.02,-0.06,0.00,-26.24,-18.88,1.93
32363,9.44,-2.45,0.07,-0.01,-0.04,0.02,-25.30,-18.71,0.39
32502,9.47,-2.30,-0.38,-0.00,-0.10,-0.04,-25.97,-19.18,0.72
32642,9.59,-2.21,-0.29,0.01,-0.03,-0.03,-25.46,-19.06,1.43
32782,9.54,-2.47,0.12,0.02,-0.10,-0.03,-25.67,-19.06,1.07
32921,9.45,-2.23,-0.28,0.01,0.00,-0.00,-25.02,-19.94,1.80
33057,9.57,-2.37,-0.20,0.02,-0.01,-0.03,-25.20,-19.80,2.02
33197,9.57,-2.21,-0.09,0.00,-0.05,-0.02,-26.03,-19.03,0.83
33336,9.51,-2.20,-0.28,0.03,-0.03,-0.01,-25.90,-19.50,0.39
33476,9.58,-2.18,-0.09,0.01,-0.04,-0.01,-25.75,-19.58,0.82
33616,9.48,-2.24,-0.19,0.03,-0.03,0.01,-25.78,-19.98,1.39
33755,9.46,-2.28,-0.32,0.03,-0.01,-0.02,-26.09,-19.56,1.32
33895,9.53,-2.26,-0.07,0.03,-0.04,-0.03,-25.67,-19.01,1.04
34035,9.53,-2.16,-0.10,0.02,-0.02,0.00,-25.88,-19.41,0.79
34180,9.59,-2.23,-0.07,0.04,-0.04,-0.02,-25.68,-19.80,1.33
34320,9.51,-2.20,0.07,-0.00,-0.05,0.04,-26.40,-19.45,1.30
34459,9.42,-2.36,-0.12,-0.00,-0.06,0.00,-25.29,-19.07,0.79
34599,9.52,-2.29,-0.15,0.01,-0.06,-0.03,-25.56,-19.37,1.08
34739,9.53,-2.21,-0.25,0.01,-0.09,-0.01,-25.40,-19.23,1.62
34878,9.54,-2.15,-0.04,0.08,0.06,0.05,-25.56,-19.20,1.17
35018,9.36,-2.09,-1.23,0.14,0.11,0.03,-25.80,-18.46,-0.44
35158,9.22,-2.05,-1.55,0.22,0.03,0.02,-29.48,-18.72,-0.22
35297,8.70,-2.11,2.13,0.59,1.64,0.44,-25.71,-17.49,-8.68
35443,7.11,-2.28,2.41,0.91,1.76,0.37,-22.54,-16.05,-20.65
35583,6.21,-2.32,8.71,0.68,1.80,0.42,-16.53,-16.57,-30.69
35722,4.44,-2.82,8.99,0.35,1.29,0.25,-7.83,-17.54,-38.60
35862,3.18,-2.34,9.09,0.26,1.16,-0.10,-1.11,-18.28,-42.53
36007,1.69,-1.37,10.71,0.10,0.97,-0.01,7.15,-18.74,-44.65
36147,0.50,-1.96,11.26,0.03,0.72,0.22,13.10,-19.57,-45.26
36287,0.21,-2.01,10.90,0.01,-0.01,-0.03,14.60,-20.30,-44.34
36426,0.44,-1.47,9.21,-0.03,-0.12,-0.07,13.78,-20.05,-44.42
36572,0.44,-1.55,9.59,0.05,-0.03,-0.01,13.80,-19.98,-44.96
36711,0.46,-1.63,10.02,0.04,-0.03,0.03,14.10,-19.98,-44.34
36851,0.45,-1.55,9.59,-0.13,-0.11,0.06,13.46,-19.60,-44.52
36991,0.33,-1.80,9.46,0.01,-0.03,0.05,13.52,-19.70,-45.35
37130,0.41,-1.43,9.70,0.06,-0.09,0.01,13.56,-20.30,-44.90
37270,0.37,-1.71,9.64,0.04,-0.07,0.01,14.15,-19.94,-44.69
37410,0.55,-1.64,9.69,0.04,-0.10,-0.01,13.80,-19.85,-45.13
37549,0.44,-1.54,9.75,0.03,-0.00,0.00,13.90,-20.40,-45.22
37689,0.46,-1.66,9.67,0.00,-0.06,-0.03,13.77,-20.07,-44.75
37834,0.54,-1.45,9.93,0.02,0.01,-0.02,13.59,-20.13,-44.62
37974,0.44,-1.54,9.65,0.02,-0.01,-0.00,13.84,-20.11,-44.68
38114,0.42,-1.61,9.86,0.02,-0.03,-0.02,14.28,-20.14,-44.02
38253,0.41,-1.47,9.91,0.11,-0.10,-0.05,14.13,-21.50,-44.96
38393,0.44,-1.30,9.82,0.01,-0.06,-0.03,13.88,-21.12,-44.87
38533,0.46,-1.34,9.74,0.02,-0.06,-0.01,13.77,-21.09,-45.54
38672,0.50,-1.39,9.93,0.13,-0.07,-0.00,13.94,-22.07,-44.78
38812,0.53,-1.15,9.92,0.10,-0.05,-0.02,13.96,-21.97,-45.60
38952,0.51,-1.01,9.97,0.06,-0.05,-0.04,13.56,-22.51,-44.75
39087,0.50,-1.08,10.00,-0.01,-0.05,-0.02,14.45,-22.49,-45.10
39227,0.50,-1.11,9.72,-0.00,-0.08,-0.04,13.61,-22.74,-45.09
39367,0.62,-1.07,10.00,-0.04,-0.02,-0.02,13.72,-22.52,-45.92
39506,0.56,-1.11,9.88,-0.00,-0.06,0.00,13.64,-22.23,-44.26
39646,0.54,-1.08,9.78,0.00,-0.04,0.00,13.64,-22.54,-45.00
39786,0.55,-1.13,9.87,0.01,-0.05,-0.00,13.90,-22.64,-45.47
39925,0.58,-1.14,9.89,0.03,-0.04,-0.01,13.88,-22.03,-44.04
40065,0.55,-1.12,9.88,0.00,-0.04,0.01,13.65,-22.03,-44.64
40210,0.51,-1.11,9.74,0.01,-0.04,-0.00,13.97,-22.07,-43.92
40350,0.67,0.08,10.03,0.09,-0.10,0.05,13.46,-22.81,-44.81
40490,1.26,2.24,9.82,-0.01,-0.25,1.45,12.92,-22.00,-45.05
40629,-0.21,-1.19,8.59,0.30,-0.71,1.77,11.18,-15.95,-45.10
40769,-0.32,-3.08,9.50,-0.12,-0.61,1.95,10.70,-12.51,-44.81
40909,-0.13,-4.77,11.27,0.31,-0.38,1.40,9.81,-12.20,-46.71
41048,0.63,-3.21,9.30,-0.25,-0.62,0.94,7.38,-9.73,-44.68
41188,0.88,-2.97,9.85,0.11,-0.09,0.79,7.53,-7.19,-43.15
41328,0.78,-3.08,9.35,0.19,-0.02,0.46,7.16,-6.84,-43.00
41488,0.73,-3.02,9.67,-0.07,-0.05,0.17,8.08,-8.10,-43.98
41627,0.50,-3.22,9.43,0.06,-0.01,0.19,8.40,-6.85,-44.20
41767,0.60,-2.57,9.50,0.05,-0.05,0.09,8.23,-6.31,-43.85
41907,0.58,-2.94,9.71,-0.03,-0.11,0.05,8.56,-7.19,-44.02
42046,0.58,-2.79,9.61,0.08,-0.15,0.03,8.39,-7.25,-43.50
42186,0.69,-2.55,9.61,-0.03,-0.07,-0.03,7.98,-6.93,-44.07
42326,0.80,-2.68,9.53,0.00,-0.09,-0.03,8.29,-7.45,-44.04
42465,1.00,-2.51,9.65,-0.01,-0.11,0.01,7.35,-6.64,-43.32
42605,0.94,-2.76,9.31,-0.05,-0.07,0.05,7.06,-7.25,-43.26
42741,0.89,-2.64,9.41,0.06,-0.04,0.01,7.59,-6.80,-42.85
42880,0.83,-2.57,9.65,-0.07,-0.03,0.01,7.44,-6.66,-42.69
43020,0.88,-2.64,9.55,0.12,-0.04,0.01,8.30,-6.69,-43.26
43160,0.86,-2.53,9.55,0.05,-0.04,0.04,7.19,-7.86,-43.04
43299,0.89,-2.39,9.47,0.05,-0.06,0.02,7.59,-7.18,-43.83
43439,0.80,-2.37,9.39,0.06,-0.06,-0.01,7.12,-7.86,-43.07
43579,0.90,-2.34,9.41,-0.10,-0.04,-0.02,7.72,-7.29,-43.76
43718,0.89,-2.45,9.66,0.03,-0.06,-0.00,7.38,-7.97,-42.88
43863,0.81,-2.54,9.44,-0.07,-0.03,0.02,8.07,-7.15,-44.53
44002,0.88,-2.44,9.73,0.03,-0.03,0.00,7.42,-7.41,-43.79
44142,0.86,-2.50,9.52,-0.02,-0.02,-0.08,7.63,-7.91,-44.50
44282,0.87,-2.30,9.58,0.05,-0.09,-0.08,6.78,-8.32,-44.36
44421,0.92,-2.50,9.57,0.03,-0.07,-0.06,7.02,-7.75,-44.72
44561,0.99,-2.38,9.62,0.01,-0.06,-0.03,7.06,-8.14,-44.20
44701,1.00,-2.26,9.73,0.08,-0.07,-0.02,6.04,-8.40,-43.80
44840,1.04,-2.13,9.73,0.02,-0.05,-0.03,6.23,-9.16,-43.70
44980,1.08,-2.23,9.61,0.01,-0.05,-0.03,5.60,-8.32,-43.67
45125,1.04,-2.22,9.76,0.01,-0.06,-0.01,5.83,-8.54,-43.95
45264,1.08,-2.27,9.67,0.03,-0.06,-0.02,6.66,-9.13,-43.72
45404,1.10,-2.29,9.70,0.05,-0.05,-0.03,6.14,-8.94,-43.22
45543,1.15,-2.08,9.72,0.00,-0.03,-0.00,5.63,-9.30,-43.58
45683,1.08,-2.04,9.66,0.02,-0.05,-0.00,6.77,-8.84,-44.18
45823,1.12,-2.11,9.70,0.01,-0.02,-0.01,6.14,-9.12,-44.20
45962,1.07,-2.13,9.68,0.03,-0.06,-0.00,5.80,-8.96,-43.74
46102,1.06,-2.10,9.70,0.03,-0.04,-0.01,6.71,-8.67,-43.53
46242,1.10,-2.14,9.67,0.01,-0.05,-0.01,6.74,-9.05,-44.07
46386,1.11,-2.12,9.60,-0.03,-0.05,-0.01,5.85,-9.13,-44.29
46527,1.12,-2.10,9.73,0.03,-0.06,-0.01,5.79,-9.11,-43.64
46666,1.14,-2.07,9.67,0.03,-0.06,-0.01,5.82,-9.32,-44.39
46806,1.11,-2.08,9.68,0.03,-0.05,-0.00,5.64,-8.78,-43.85
46946,1.18,-1.99,9.76,0.04,-0.06,-0.02,6.01,-9.28,-43.54
47085,1.22,-1.96,9.72,0.01,-0.05,-0.01,6.23,-9.35,-43.79
47225,1.20,-1.86,9.64,0.00,-0.05,-0.01,6.28,-8.99,-43.35
47365,1.20,-2.01,9.67,0.03,-0.06,0.00,5.61,-9.18,-44.53
47504,1.17,-1.96,9.65,0.01,-0.05,-0.01,5.60,-9.88,-42.98
47649,1.21,-1.95,9.75,0.01,-0.05,-0.01,5.52,-9.94,-44.39
47789,1.21,-1.90,9.74,0.04,-0.05,-0.01,5.85,-9.72,-43.64
47928,1.21,-1.97,9.65,0.01,-0.05,0.01,5.39,-9.22,-45.48
48068,1.19,-2.01,9.67,0.00,-0.04,0.00,6.23,-10.13,-44.18
48208,1.17,-2.09,9.71,0.04,-0.04,-0.01,5.90,-9.94,-43.73
48347,1.21,-1.96,9.65,0.00,-0.05,-0.01,5.67,-9.38,-44.81
48487,1.22,-1.94,9.73,0.03,-0.04,-0.01,6.33,-10.49,-43.19
48626,1.23,-1.97,9.75,-0.00,-0.04,-0.01,6.05,-9.91,-44.88
48766,1.21,-1.90,9.73,0.02,-0.04,-0.01,5.90,-9.98,-44.31
48912,1.20,-1.88,9.72,0.03,-0.04,-0.00,6.05,-10.32,-44.10
49051,1.18,-2.01,9.65,0.04,-0.07,-0.02,5.85,-9.95,-45.00
49191,1.23,-1.85,9.79,0.02,-0.04,-0.00,6.17,-9.95,-43.64
49331,1.21,-1.87,9.73,0.03,-0.03,-0.01,5.70,-10.03,-45.03
49470,1.20,-1.85,9.71,0.02,-0.05,-0.02,5.63,-10.95,-44.15
49610,1.24,-1.80,9.85,0.02,-0.04,-0.01,5.54,-10.73,-44.67
49750,1.25,-1.83,9.78,-0.01,-0.05,-0.01,5.38,-11.21,-47.41
49889,1.25,-1.82,9.59,-0.00,-0.05,-0.02,5.61,-10.27,-45.38
50034,1.25,-1.81,9.75,0.01,-0.05,-0.01,6.01,-11.01,-41.19
50173,1.28,-1.77,9.67,0.02,-0.05,0.00,5.79,-10.77,-44.83
50313,1.24,-1.77,9.80,0.02,-0.04,0.01,6.49,-10.68,-44.99
50453,1.28,-1.82,9.72,0.01,-0.05,-0.01,5.93,-10.58,-44.45
50592,1.23,-1.83,9.62,0.01,-0.05,-0.01,5.67,-10.42,-45.10
50732,1.23,-1.80,9.71,0.02,-0.03,0.00,5.42,-11.25,-44.46
50872,1.22,-1.84,9.72,0.01,-0.05,0.00,5.83,-10.16,-44.86
51011,1.20,-1.95,9.78,0.03,-0.05,-0.01,5.66,-10.36,-44.55
51151,1.19,-1.81,9.70,0.01,-0.05,0.01,5.45,-10.41,-44.04
51296,1.21,-1.82,9.75,0.03,-0.05,0.02,6.28,-10.07,-43.85
51436,1.24,-1.76,9.68,0.01,-0.05,-0.01,6.53,-10.32,-45.31
51576,1.21,-1.81,9.61,-0.00,-0.06,-0.01,5.71,-10.61,-45.43
51715,1.24,-1.76,9.65,0.03,-0.05,-0.00,5.67,-10.36,-45.00
51855,1.22,-1.77,9.64,0.04,-0.04,-0.00,5.33,-10.71,-44.75
51995,1.20,-1.67,9.91,0.06,-0.04,-0.01,5.82,-10.87,-44.49
52134,1.05,-2.27,9.57,0.13,-0.08,-0.10,6.08,-10.57,-45.64
52274,0.62,-2.49,7.94,0.90,-0.38,-1.00,5.17,-14.94,-45.32
52414,0.13,1.47,9.24,0.43,-0.06,-2.08,7.02,-25.12,-44.29
52558,0.03,1.55,7.93,1.65,-0.24,-2.29,14.72,-34.07,-42.39
52698,-1.06,6.25,9.25,2.55,-0.14,-2.79,23.72,-38.85,-34.38
52837,-2.26,6.63,6.90,3.75,-0.55,-2.39,25.42,-43.69,-21.53
52983,-3.51,7.96,5.06,1.89,-0.52,-1.51,29.03,-46.81,-9.88
53123,-4.93,7.29,2.50,1.50,-0.68,-1.17,34.11,-47.60,-0.48
53262,-5.80,7.69,2.95,0.10,-0.38,-0.91,38.25,-46.08,3.93
53402,-6.84,7.26,2.30,0.68,-0.05,-1.04,42.24,-45.15,5.07
53541,-7.65,6.20,2.28,-0.54,-0.11,-0.66,45.26,-43.99,6.74
53681,-8.38,5.31,1.28,0.39,-0.46,-0.71,47.91,-41.68,8.40
53817,-8.13,5.67,2.69,-0.20,0.39,-0.53,49.18,-39.14,10.38
53957,-8.60,4.42,1.80,-0.19,0.27,-0.50,50.70,-37.88,10.92
54096,-8.70,4.92,1.57,0.08,0.03,-0.25,49.91,-36.73,13.26
54236,-8.96,3.86,1.90,-0.21,0.04,-0.23,51.32,-36.77,12.86
54375,-8.96,3.60,1.73,0.07,-0.05,-0.04,50.98,-36.01,14.24
54515,-8.93,3.52,1.81,0.05,-0.02,-0.03,50.94,-34.86,14.43
54655,-8.97,3.51,1.72,0.02,-0.03,0.00,50.60,-35.72,15.39
54794,-9.01,3.47,1.80,-0.05,-0.03,0.00,51.18,-35.97,14.85
54940,-8.97,3.50,1.77,-0.01,-0.04,-0.03,50.58,-35.56,15.96
55080,-8.94,3.68,1.90,-0.04,-0.04,-0.00,50.82,-35.50,14.21
55219,-9.07,3.92,2.05,-0.01,-0.11,0.09,50.89,-35.97,13.33
55359,-8.74,3.37,1.29,-0.05,-0.10,0.05,50.73,-36.39,13.56
55499,-8.98,3.56,2.02,-0.07,0.05,-0.03,50.22,-36.41,13.94
55638,-8.91,3.50,2.11,0.04,-0.02,-0.02,50.57,-36.16,14.03
55778,-8.92,3.36,1.79,-0.04,-0.06,-0.05,50.25,-36.16,13.45
55917,-8.94,3.51,1.74,-0.01,-0.04,-0.06,50.70,-36.23,14.37
56057,-8.99,3.51,1.94,0.00,-0.01,-0.05,51.24,-36.39,14.28
56203,-8.97,3.44,1.96,0.07,-0.03,-0.05,50.70,-36.25,13.08
56342,-9.04,3.34,1.80,0.03,-0.06,0.01,51.34,-36.36,13.81
56482,-8.94,3.48,1.76,0.05,-0.06,-0.01,51.39,-35.91,13.17
56622,-8.93,3.41,1.93,0.01,-0.05,-0.01,51.40,-36.93,13.96
56761,-8.99,3.37,1.84,-0.05,-0.04,0.01,51.37,-36.03,13.12
56901,-9.01,3.19,1.92,-0.02,-0.03,0.01,51.07,-36.32,13.81
57041,-9.00,3.39,1.93,0.02,-0.05,-0.01,51.13,-36.07,13.14
57180,-8.97,3.46,1.97,0.00,-0.04,-0.01,51.18,-35.97,12.96
57320,-8.99,3.35,1.91,-0.02,-0.04,-0.01,51.55,-35.63,14.02
57465,-8.99,3.35,1.91,-0.00,-0.05,-0.01,51.24,-36.28,13.11
57605,-9.00,3.31,1.90,0.02,-0.04,0.00,51.68,-35.82,15.29
57745,-9.01,3.39,1.89,0.01,-0.04,-0.01,51.81,-36.12,14.15
57884,-9.07,3.24,1.89,0.00,-0.04,-0.00,51.74,-36.28,13.93
58024,-9.02,3.23,1.80,0.00,-0.05,-0.00,51.87,-36.36,14.28
58164,-9.06,3.20,1.90,0.01,-0.04,-0.00,51.36,-36.04,14.97
58303,-9.01,3.33,1.92,0.01,-0.05,-0.01,51.55,-36.50,13.94
58443,-9.01,3.37,1.90,-0.01,-0.03,0.01,52.05,-35.90,13.80
58587,-9.04,3.31,1.82,-0.02,-0.04,0.02,51.43,-36.17,13.77
58727,-8.99,3.36,1.93,-0.00,-0.04,-0.00,52.16,-36.31,13.34
58867,-9.01,3.30,1.93,0.00,-0.05,-0.01,51.61,-36.45,13.15
59006,-9.00,3.37,1.83,0.03,-0.04,-0.01,51.36,-36.51,13.61
59146,-9.01,3.42,1.89,0.03,-0.04,-0.02,51.40,-36.38,14.00
59286,-9.03,3.27,1.91,0.00,-0.03,0.00,51.51,-36.22,15.80
59425,-9.01,3.32,1.88,0.03,-0.04,-0.01,51.05,-35.93,14.00
59565,-8.99,3.43,1.79,0.04,-0.05,-0.02,51.45,-36.00,18.20
59705,-9.02,3.28,1.87,0.01,-0.03,-0.02,51.62,-36.76,15.43
59850,-9.01,3.29,1.85,0.02,-0.04,-0.01,51.20,-36.67,15.43
59990,-8.99,3.32,1.94,0.00,-0.05,-0.01,50.79,-36.89,16.12
60129,-9.07,3.28,1.85,0.01,-0.04,0.00,51.71,-36.26,15.64
60269,-9.01,3.30,1.89,0.01,-0.05,-0.00,51.67,-36.00,15.30
60409,-9.02,3.22,1.93,0.03,-0.05,-0.01,51.67,-35.84,15.30
60548,-9.03,3.30,1.90,0.01,-0.05,-0.00,51.68,-36.32,14.81
60688,-9.05,3.33,1.84,-0.00,-0.06,-0.00,51.02,-36.32,15.17
60828,-8.99,3.29,1.81,-0.00,-0.05,-0.01,51.36,-36.55,15.11
60967,-8.95,3.18,2.06,-0.05,-0.01,-0.01,51.32,-36.42,14.32
61128,-9.03,3.30,1.83,-0.01,-0.05,-0.00,52.50,-36.13,14.07
61268,-8.97,3.32,1.87,0.00,-0.04,-0.01,51.80,-36.20,15.45
61408,-9.01,3.25,1.90,0.01,-0.04,0.01,51.21,-36.54,16.16
61547,-9.04,3.21,1.93,0.00,-0.04,0.01,51.48,-36.31,15.71
61687,-9.02,3.26,1.86,0.01,-0.04,-0.00,51.61,-35.59,14.50
61833,-9.01,3.32,1.80,0.03,-0.03,-0.01,50.50,-36.66,14.98
61972,-9.04,3.28,1.76,0.02,-0.04,-0.00,51.24,-36.32,15.97
62112,-9.02,3.31,1.88,0.01,-0.04,0.00,50.82,-36.03,15.52
62257,-9.04,3.28,1.75,-0.00,-0.04,0.01,51.46,-36.33,15.21
62397,-9.05,3.26,1.77,0.02,-0.05,-0.00,50.54,-35.93,15.10
62537,-9.03,3.31,1.85,0.01,-0.06,-0.00,51.24,-36.36,14.47
62676,-8.98,3.42,1.64,-0.02,-0.05,0.01,50.26,-35.93,14.73
62816,-8.97,3.38,1.84,0.01,-0.04,-0.00,50.99,-35.62,15.19
62956,-8.98,3.33,2.02,0.01,-0.03,-0.01,50.75,-35.91,14.62
63095,-9.02,3.33,1.83,0.01,-0.04,-0.01,50.83,-36.07,15.43
63235,-9.01,3.22,1.89,0.02,-0.04,-0.01,50.64,-36.35,15.14
63375,-9.02,3.38,1.77,0.05,-0.05,-0.03,51.17,-36.23,14.62
63520,-9.16,3.37,2.24,-0.08,-0.11,0.00,52.05,-36.01,15.07
63660,-9.35,3.10,4.98,0.34,-0.78,-0.04,51.71,-35.60,13.11
63799,-9.35,3.69,6.52,-0.26,-1.54,-0.03,53.73,-37.07,3.27
63939,-8.43,3.42,7.39,-0.38,-2.06,0.01,55.12,-37.61,-10.93
64079,-6.67,3.18,7.97,-0.28,-2.02,0.07,51.78,-37.93,-23.38
64218,-4.15,2.82,8.28,-0.27,-1.63,0.12,45.44,-37.68,-34.05
64358,-1.97,2.60,7.93,-0.23,-1.22,0.18,37.78,-37.80,-39.92
64498,-0.12,1.77,8.80,-0.55,-0.87,0.20,30.71,-36.42,-42.84
64637,1.14,1.03,8.82,-0.33,-0.80,0.12,25.40,-33.34,-46.21
64773,2.06,0.91,8.08,-0.24,-0.57,0.03,20.48,-31.72,-47.11
64913,2.68,0.63,8.15,-0.05,-0.32,0.09,17.99,-30.87,-46.96
65052,3.11,0.48,8.88,-0.10,-0.07,0.08,17.49,-29.39,-47.71
65192,3.02,0.00,9.43,-0.06,0.04,0.03,17.95,-30.21,-48.45
65332,3.02,0.01,9.42,-0.01,-0.04,0.03,17.04,-28.65,-48.93
65471,2.97,0.07,9.29,-0.03,-0.05,-0.01,17.11,-29.13,-49.04
65611,3.04,0.38,9.54,-0.01,-0.02,-0.02,17.51,-28.24,-48.04
65750,2.97,0.23,9.63,-0.10,-0.03,0.05,18.31,-27.67,-48.20
65896,2.96,0.01,9.48,-0.00,-0.03,-0.05,17.55,-28.97,-47.81
66036,3.03,0.13,9.47,0.15,0.03,-0.09,18.06,-29.36,-47.71
66175,3.01,1.63,10.26,0.17,-0.01,-0.19,19.77,-29.76,-47.31
66315,2.72,-0.02,9.41,0.13,-0.06,0.18,18.75,-30.75,-47.19
66455,2.80,0.86,9.15,-0.05,-0.10,0.04,18.62,-29.58,-47.30
66594,2.77,0.16,9.28,0.03,-0.04,0.06,18.30,-29.54,-47.02
66734,2.65,0.30,9.45,0.03,-0.04,0.02,18.31,-29.36,-47.68
66874,2.71,0.29,9.98,-0.00,-0.03,-0.06,18.12,-29.70,-47.41
67013,2.83,0.08,9.42,0.05,-0.07,-0.04,17.95,-29.41,-47.50
67158,2.88,-0.09,9.50,0.04,-0.01,-0.01,17.80,-29.60,-47.57
67297,2.76,-0.08,9.52,0.02,0.02,0.05,18.04,-29.07,-46.73
67437,2.76,0.18,9.30,-0.10,-0.07,0.02,18.33,-28.53,-47.00
67577,2.72,0.56,9.24,0.05,-0.16,0.10,18.02,-29.38,-48.28
67716,2.71,0.13,9.17,0.02,-0.04,-0.02,17.63,-29.14,-46.93
67856,2.73,-0.14,9.71,-0.00,-0.02,0.00,17.87,-29.58,-46.43
67996,2.75,0.26,9.49,-0.01,-0.05,-0.03,18.49,-29.25,-47.16
68135,2.71,0.07,9.57,-0.06,-0.02,-0.01,18.36,-29.25,-47.43
68281,2.67,0.25,9.24,0.01,-0.04,-0.02,22.33,-29.28,-48.07
68420,2.68,0.21,9.62,-0.02,0.00,-0.01,18.81,-29.20,-47.18
68560,2.68,0.11,9.72,0.00,-0.01,0.04,19.41,-28.78,-47.35
68700,2.55,0.23,9.57,0.06,-0.01,0.05,19.92,-29.54,-47.19
68839,2.54,0.02,9.74,0.02,-0.02,-0.00,19.32,-29.03,-46.80
68979,2.57,0.07,9.86,-0.01,-0.03,0.01,19.18,-29.01,-47.47
69119,2.53,0.17,9.62,-0.03,-0.05,-0.04,19.50,-28.71,-47.59
69258,2.60,0.10,9.67,-0.10,-0.05,0.08,19.39,-28.09,-47.43
69398,2.61,0.00,9.67,0.03,-0.04,-0.01,20.30,-28.18,-48.03
69543,2.49,-0.38,9.68,-0.05,-0.01,0.05,19.13,-28.03,-48.36
69683,2.47,-0.32,9.72,-0.03,-0.01,0.01,19.44,-28.09,-47.68
69823,2.49,-0.26,9.65,-0.04,-0.01,-0.01,20.21,-27.26,-47.53
69973,2.40,-0.30,9.59,-0.06,0.03,-0.02,20.14,-27.32,-47.75
70118,2.40,-0.11,9.81,-0.00,0.00,-0.02,20.43,-27.48,-48.49
70257,2.31,-0.49,9.86,-0.06,-0.02,0.06,21.09,-26.91,-47.87
70397,2.27,-0.60,9.76,0.00,-0.01,0.00,21.10,-26.75,-47.00
70537,2.28,-0.57,9.77,0.02,-0.08,-0.03,20.99,-26.03,-47.85
70676,2.26,-0.30,9.49,-0.05,0.01,-0.05,21.06,-26.37,-47.47
70822,2.22,-0.36,9.76,0.01,-0.02,-0.03,20.40,-26.50,-47.66
70961,2.32,-0.68,10.17,-0.02,-0.04,0.02,20.78,-25.67,-47.63
71101,2.23,-0.43,9.58,0.03,-0.07,-0.01,19.41,-26.00,-47.85
71241,2.19,-0.61,9.51,0.04,-0.04,0.01,19.99,-26.67,-47.72
71380,2.27,-0.44,9.54,0.03,0.00,-0.03,19.77,-26.62,-48.57
71520,2.18,-0.30,9.75,0.03,-0.02,-0.04,21.09,-26.91,-48.66
71660,2.16,-0.44,9.79,0.01,-0.04,-0.02,21.03,-26.47,-47.09
71799,2.15,-0.61,9.55,0.09,-0.04,0.03,20.96,-27.07,-47.35
71945,2.16,0.28,9.38,0.14,0.02,-0.08,21.18,-27.78,-48.03
72084,2.12,0.04,9.69,0.03,-0.01,0.04,20.94,-27.64,-48.36
72224,2.01,-0.29,9.72,-0.04,0.04,-0.00,21.62,-27.02,-46.97
72364,1.85,-0.07,9.61,0.07,-0.04,-0.00,21.46,-27.32,-48.35
72503,1.96,0.20,9.47,0.03,-0.06,-0.02,21.92,-27.81,-46.86
72643,1.88,0.23,9.56,0.01,-0.03,-0.10,21.78,-28.90,-48.06
72783,1.84,-0.42,9.66,-0.19,-0.12,0.19,21.67,-28.43,-48.03
72922,2.02,-0.08,9.75,0.00,-0.02,-0.12,22.26,-28.22,-47.78
73062,2.04,0.13,9.77,-0.01,-0.07,0.03,22.04,-28.08,-47.94
73208,1.98,-0.30,9.86,0.01,-0.05,-0.01,21.81,-26.94,-47.52
73347,2.05,0.03,9.81,0.05,-0.05,-0.01,21.50,-27.78,-48.20
73487,2.05,-0.14,9.63,-0.01,-0.07,0.02,21.56,-27.52,-46.90
73626,2.07,0.19,9.62,0.01,-0.04,0.05,21.53,-28.30,-48.30
73766,2.02,-0.30,9.88,0.02,-0.02,0.03,21.21,-28.00,-48.63
73906,1.99,-0.10,9.90,0.02,-0.04,0.02,21.09,-27.51,-48.06
74045,2.06,-0.25,9.83,0.00,-0.08,0.00,21.09,-27.77,-48.49
74185,2.11,-0.08,9.64,-0.01,-0.04,-0.04,21.54,-27.57,-48.83
74325,2.11,-0.15,9.66,0.04,-0.04,0.01,21.92,-27.80,-48.20
74470,2.09,-0.07,9.74,0.02,-0.03,-0.02,21.46,-27.81,-49.42
74610,2.06,-0.07,9.80,0.12,-0.09,-0.01,21.56,-27.67,-48.92
74750,2.06,0.06,9.55,0.02,-0.08,0.01,21.65,-27.97,-48.55
74889,2.09,-0.03,9.57,-0.02,-0.06,0.02,20.74,-28.41,-48.73
75029,2.13,0.01,9.56,-0.00,-0.08,-0.01,21.35,-28.18,-48.70
75168,2.16,0.40,9.74,0.08,-0.29,0.10,20.84,-28.27,-48.64
75308,2.57,1.06,10.44,1.09,-1.08,0.54,15.39,-30.52,-47.82
75448,4.03,1.34,8.18,1.17,-1.53,0.58,5.64,-34.45,-43.85
75592,5.94,1.94,7.52,0.55,-1.18,0.80,-7.07,-36.26,-39.33
75732,6.94,1.47,6.54,0.73,-1.37,0.92,-12.25,-35.28,-31.53
75872,8.33,0.18,4.13,0.83,-1.56,0.92,-20.01,-33.59,-22.89
76011,9.11,-0.53,2.75,0.40,-1.13,0.63,-24.50,-29.58,-13.94
76151,9.20,-0.73,0.59,0.38,-0.93,0.31,-26.12,-27.39,-6.62
76291,9.50,-1.38,-0.42,0.12,-0.50,0.33,-25.81,-25.21,-1.23
76430,9.64,-1.53,-0.59,0.05,-0.38,0.29,-26.59,-23.63,0.53
76570,9.54,-1.74,-1.38,0.08,0.02,0.16,-26.56,-22.13,1.29
76709,9.59,-1.99,-0.73,0.06,-0.07,0.08,-26.88,-21.56,1.80
76854,9.42,-2.36,-0.51,0.03,-0.03,0.05,-26.43,-20.86,1.64
76994,9.57,-2.15,-0.45,0.03,0.05,-0.01,-26.37,-20.49,0.57
77133,9.61,-2.04,-0.51,0.01,-0.02,0.01,-27.13,-20.27,0.80
77273,9.52,-2.11,-0.28,0.02,-0.00,0.05,-26.69,-20.46,0.45
77413,9.51,-2.15,-0.48,0.02,-0.01,0.00,-27.23,-20.51,0.47
77552,9.52,-2.12,-0.44,0.05,-0.06,-0.01,-26.34,-19.89,0.45
77692,9.54,-2.16,-0.31,0.03,-0.02,-0.01,-27.16,-20.08,1.52
77832,9.53,-2.13,-0.38,0.02,-0.06,0.01,-26.51,-19.73,0.67
77971,9.49,-2.31,-0.30,0.02,-0.05,0.01,-27.11,-20.29,0.66
78117,9.55,-2.16,-0.26,0.02,-0.04,-0.01,-27.23,-19.94,0.53
78256,9.50,-2.19,-0.43,0.03,-0.05,-0.01,-26.28,-19.80,0.12
78396,9.56,-2.16,-0.19,0.03,-0.05,0.02,-26.66,-20.13,-0.34
78536,9.46,-2.28,-0.37,0.02,-0.04,0.02,-26.43,-20.20,0.53
78675,9.61,-2.28,-0.04,0.01,-0.04,0.04,-26.25,-19.72,0.03
78815,9.54,-2.41,-0.21,0.04,-0.09,0.04,-26.28,-19.00,0.26
78955,9.37,-2.30,-0.42,0.02,-0.01,0.00,-26.75,-19.35,-0.38
79094,9.37,-2.54,-0.35,0.03,-0.04,-0.01,-26.38,-19.53,1.04
79239,9.48,-2.39,0.04,0.03,0.01,-0.01,-26.72,-19.06,-0.10
79379,9.55,-2.44,-0.04,0.02,-0.02,-0.00,-25.94,-19.41,-1.07
79519,9.42,-2.44,-0.12,0.00,-0.02,-0.00,-25.99,-19.34,-1.10
79659,9.54,-2.31,-0.08,0.02,-0.03,-0.01,-26.34,-18.97,-2.37
79798,9.60,-2.40,0.08,0.04,-0.02,-0.00,-25.77,-19.25,-0.99
79938,9.44,-2.41,-0.14,0.05,-0.04,0.03,-26.35,-18.58,-2.06
80078,9.42,-2.45,-0.02,0.04,-0.08,-0.01,-25.91,-18.46,-0.25
80217,9.48,-2.55,0.01,0.03,-0.02,-0.04,-26.29,-19.28,-0.35
80357,9.57,-2.26,-0.03,0.02,-0.05,-0.01,-26.24,-19.54,-0.45
80517,9.47,-2.51,0.02,0.02,-0.09,-0.00,-25.42,-18.85,-0.75
80657,9.47,-2.38,0.07,0.01,-0.02,0.01,-25.77,-19.37,-0.45
80796,9.44,-2.36,-0.19,0.02,-0.05,0.01,-26.05,-18.84,-0.37
80936,9.47,-2.36,-0.07,0.02,-0.07,0.00,-26.43,-19.16,0.44
81076,9.40,-2.58,-0.00,0.03,-0.02,0.02,-26.50,-19.13,-0.12
81215,9.46,-2.44,-0.01,0.02,-0.05,-0.01,-25.81,-19.01,-0.91
81355,9.48,-2.53,0.10,0.02,-0.05,0.01,-25.68,-18.55,-0.72
81495,9.40,-2.59,0.12,0.01,-0.04,0.01,-25.18,-19.20,-0.63
81639,9.36,-2.40,-0.11,0.02,-0.03,0.00,-25.39,-18.69,-0.16
81779,9.55,-2.60,0.16,0.03,-0.03,-0.04,-25.77,-19.38,-1.75
81918,9.53,-2.43,0.29,0.02,-0.04,0.00,-26.53,-18.58,-1.65
82058,9.43,-2.51,0.11,0.02,-0.02,-0.01,-26.67,-19.22,-2.05
82198,9.53,-2.44,0.17,0.01,-0.04,-0.01,-27.35,-22.35,-1.17
82337,9.44,-2.47,0.14,0.02,-0.05,0.00,-22.58,-18.53,-1.40
82477,9.47,-2.48,0.25,0.02,-0.03,-0.01,-26.59,-18.82,-0.54
82617,9.52,-2.53,0.34,0.01,-0.04,-0.02,-26.59,-19.58,-1.67
82756,9.53,-2.37,0.13,0.01,-0.05,-0.03,-25.99,-19.13,-1.96
82901,9.44,-2.48,0.10,0.01,-0.02,0.02,-27.02,-18.69,-1.42
83041,9.44,-2.27,0.08,0.02,-0.03,0.01,-26.83,-18.53,-2.12
83180,9.49,-2.37,0.14,0.01,-0.05,0.01,-26.72,-18.91,-2.50
83320,9.46,-2.45,0.23,0.03,-0.03,0.02,-27.19,-18.37,-0.39
83459,9.40,-2.54,0.15,0.02,-0.04,0.02,-26.35,-18.12,-1.77
83599,9.45,-2.50,0.37,0.04,-0.05,-0.01,-26.41,-18.12,-2.08
83739,9.48,-2.43,0.29,0.01,-0.02,0.00,-26.45,-17.87,-2.41
83878,9.43,-2.56,0.27,0.04,-0.05,-0.01,-26.83,-18.11,-1.99
84024,9.50,-2.47,0.52,0.03,-0.03,-0.02,-26.86,-18.27,-2.22
84164,9.51,-2.39,0.26,0.01,-0.05,-0.00,-26.69,-17.93,-2.48
84303,9.47,-2.55,0.28,0.01,-0.07,-0.01,-26.35,-17.80,-1.68
84443,9.43,-2.40,0.24,0.00,-0.04,0.00,-27.01,-18.20,-1.99
84583,9.50,-2.46,0.29,0.00,-0.03,-0.03,-27.39,-18.47,-1.59
84722,9.46,-2.43,0.33,0.04,-0.05,0.02,-26.64,-18.82,-2.13
84862,9.40,-2.58,0.32,0.01,-0.02,0.01,-27.46,-18.58,-2.32
85001,9.54,-2.43,0.47,0.01,-0.05,-0.03,-26.25,-19.06,-2.06
85141,9.45,-2.39,0.37,0.02,-0.04,0.02,-25.94,-18.66,-1.11
85286,9.44,-2.51,0.30,0.02,-0.03,-0.03,-26.95,-17.76,-2.06
85425,9.48,-2.51,0.49,0.03,-0.06,-0.00,-27.24,-18.65,-1.97
85565,9.51,-2.39,0.60,0.03,-0.03,-0.01,-26.91,-18.14,-2.84
85705,9.47,-2.50,0.49,0.01,-0.05,0.00,-26.03,-15.26,-1.86
85844,9.43,-2.48,0.39,0.01,-0.06,-0.01,-26.50,-18.09,-3.00
85984,9.50,-2.49,0.55,0.01,-0.07,-0.02,-25.90,-18.47,-2.19
86124,9.39,-2.11,-0.40,0.06,0.16,0.07,-26.10,-18.30,-2.50
86263,9.12,-2.21,-0.13,0.21,0.55,0.16,-26.44,-17.41,-5.82
86403,8.75,-2.81,0.94,0.40,1.05,0.26,-26.00,-16.65,-10.52
86548,7.21,-2.45,3.70,0.42,1.86,0.59,-22.00,-14.63,-26.09
86688,5.55,-3.46,6.49,0.18,1.88,0.85,-14.83,-10.76,-33.40
86833,3.39,-4.81,9.67,0.10,1.50,0.85,-4.24,-8.05,-40.84
86973,1.96,-5.08,9.87,0.21,0.83,0.48,3.35,-7.44,-43.28
87113,1.33,-4.39,8.36,0.07,0.55,0.26,6.99,-8.13,-45.13
87252,0.38,-4.56,9.78,0.02,0.56,0.15,12.48,-7.98,-46.45
87392,-0.24,-4.21,9.00,0.01,0.45,0.17,16.02,-7.45,-45.75
87532,-0.80,-4.43,9.54,0.09,0.14,0.06,18.61,-8.58,-46.42
87677,-1.00,-4.18,8.92,0.07,0.11,-0.02,18.94,-8.75,-47.27
87817,-1.16,-3.93,9.02,0.13,0.08,-0.03,19.91,-9.53,-45.54
87957,-1.21,-3.74,9.13,0.10,-0.01,-0.01,20.32,-9.84,-45.72
88096,-1.17,-3.76,9.11,0.06,-0.08,-0.01,20.77,-11.20,-46.57
88236,-1.24,-3.86,9.33,0.03,-0.02,0.02,21.21,-10.22,-46.61
88375,-1.18,-3.74,9.06,0.02,-0.14,-0.04,19.89,-10.82,-45.76
88515,-1.11,-3.75,9.20,0.02,-0.05,-0.02,20.27,-10.29,-45.82
88655,-1.02,-3.67,9.22,0.04,-0.06,-0.02,20.40,-10.52,-46.11
88794,-1.03,-3.64,9.29,0.02,-0.08,0.00,19.86,-10.80,-45.26
88940,-1.02,-3.77,9.16,0.00,-0.06,0.02,20.68,-10.77,-46.64
89080,-1.02,-3.68,9.15,0.03,-0.02,-0.01,20.56,-10.49,-45.34
89219,-1.08,-3.70,9.36,0.05,-0.05,-0.02,20.96,-10.98,-46.52
89359,-1.03,-3.70,9.24,0.02,-0.05,-0.03,19.96,-11.24,-46.05
89499,-1.01,-3.57,9.16,0.03,-0.06,-0.05,20.30,-10.89,-45.64
89638,-1.01,-3.54,9.11,0.06,-0.03,-0.04,20.51,-11.36,-45.53
89778,-0.97,-3.53,9.22,0.06,-0.05,-0.06,19.63,-12.28,-45.09
89917,-0.90,-3.43,9.24,0.05,-0.09,-0.07,19.63,-11.91,-45.62
90062,-0.89,-3.40,9.27,0.06,-0.09,-0.04,19.91,-12.34,-46.57
90202,-0.84,-3.42,9.19,0.06,-0.07,-0.02,19.70,-12.58,-46.67
90341,-0.78,-3.38,9.33,0.03,-0.05,-0.03,18.71,-12.23,-45.50
90481,-0.72,-3.34,9.27,0.01,-0.06,-0.02,19.57,-12.29,-45.98
90621,-0.72,-3.31,9.30,0.02,-0.05,-0.02,19.35,-12.99,-46.65
90760,-0.70,-3.39,9.38,0.03,-0.06,-0.03,19.95,-12.29,-45.88
90900,-0.66,-3.21,9.35,0.02,-0.05,-0.02,19.03,-12.73,-46.38
91040,-0.63,-3.26,9.25,0.01,-0.05,0.01,19.37,-12.92,-46.43
91179,-0.70,-3.36,9.44,0.00,-0.03,0.02,18.90,-12.36,-45.53
91325,-0.69,-3.41,9.35,0.01,-0.03,0.01,18.94,-12.47,-46.02
91464,-0.74,-3.37,9.32,0.02,-0.05,-0.01,18.55,-12.95,-45.94
91604,-0.74,-3.30,9.45,0.01,-0.05,-0.01,19.13,-12.28,-46.04
91744,-0.68,-3.30,9.36,0.01,-0.03,-0.00,19.00,-12.85,-46.17
91883,-0.71,-3.35,9.46,0.05,-0.13,-0.02,18.50,-12.64,-46.19
92023,-0.61,-3.29,9.51,0.00,-0.03,-0.00,19.13,-12.85,-46.49
92163,-0.61,-3.29,9.29,0.00,-0.03,-0.00,19.07,-12.95,-46.36
92302,-0.61,-3.25,9.41,0.03,-0.06,-0.01,18.72,-12.89,-45.32
92447,-0.60,-3.22,9.38,0.01,-0.04,-0.00,18.68,-13.65,-45.83
92586,-0.60,-3.20,9.45,0.01,-0.04,0.01,18.88,-12.77,-45.66
92726,-0.59,-3.21,9.37,-0.00,-0.03,0.02,18.66,-12.93,-45.67
92866,-0.67,-3.32,9.35,0.01,-0.04,0.02,18.97,-12.92,-45.10
93005,-0.68,-3.28,9.39,0.01,-0.04,-0.02,19.09,-12.22,-45.51
93145,-0.62,-3.25,9.44,0.00,-0.03,0.01,19.16,-12.44,-45.91
93285,-0.64,-3.22,9.32,0.01,-0.05,-0.01,18.84,-12.07,-45.37
93424,-0.65,-3.30,9.31,0.01,-0.05,0.00,18.30,-12.96,-44.56
93564,-0.62,-3.30,9.49,0.01,-0.01,0.01,19.07,-13.34,-44.55
93709,-0.68,-3.26,9.40,0.00,-0.07,0.01,19.01,-12.99,-44.61
93849,-0.68,-3.26,9.31,0.01,-0.05,-0.01,18.66,-13.29,-45.44
93989,-0.64,-3.27,9.32,0.01,-0.05,-0.02,14.97,-13.20,-45.41
94128,-0.59,-3.21,9.32,0.02,-0.05,-0.01,18.63,-12.74,-44.93
94268,-0.62,-3.23,9.32,0.01,-0.04,0.01,18.62,-13.12,-45.10
94408,-0.63,-3.30,9.50,0.02,-0.03,0.01,18.81,-13.27,-44.93
94547,-0.64,-3.21,9.34,0.02,-0.04,0.00,18.96,-12.83,-45.37
94687,-0.61,-3.19,9.41,0.02,-0.04,-0.01,18.23,-12.72,-46.24
94833,-0.66,-3.20,9.41,0.03,-0.03,-0.00,19.35,-12.89,-45.10
94972,-0.66,-3.18,9.50,0.03,-0.02,0.00,19.35,-13.31,-44.86
95112,-0.70,-3.15,9.55,0.01,-0.04,-0.00,18.87,-12.80,-45.62
95251,-0.68,-3.08,9.23,0.02,-0.07,-0.01,18.59,-13.81,-45.56
95391,-0.67,-3.16,9.41,0.02,-0.04,-0.00,18.99,-13.31,-45.54
95531,-0.66,-3.09,9.34,0.02,-0.05,-0.00,19.23,-13.17,-45.21
95670,-0.62,-3.12,9.42,0.01,-0.05,-0.01,18.53,-13.23,-44.88
95810,-0.63,-3.09,9.33,0.02,-0.04,-0.02,19.29,-13.46,-45.64
95950,-0.60,-3.03,9.44,0.03,-0.06,0.00,19.16,-13.23,-45.83
96095,-0.64,-3.01,9.52,0.03,0.01,0.01,18.63,-13.68,-46.05
96235,-0.71,-3.05,9.60,0.00,-0.07,-0.00,18.99,-13.67,-46.97
96375,-0.68,-3.06,9.32,-0.00,-0.07,-0.02,19.38,-13.83,-45.48
96514,-0.61,-3.24,9.59,0.02,-0.07,-0.00,19.76,-14.15,-45.91
96654,-0.56,-3.13,9.28,0.02,-0.05,0.00,19.04,-13.86,-46.08
96793,-0.64,-3.10,9.38,0.04,-0.07,0.01,18.69,-13.83,-45.66
96933,-0.64,-3.05,9.58,0.03,-0.05,-0.02,18.68,-14.32,-46.11
97073,-0.50,-2.95,9.41,0.01,-0.08,-0.02,17.99,-13.80,-46.64
97224,-0.58,-3.13,9.33,0.01,-0.05,0.00,18.46,-14.31,-46.11
97364,-0.54,-3.08,9.54,0.01,-0.04,-0.03,18.53,-14.10,-44.74
97503,-0.55,-3.13,9.73,0.02,-0.03,0.00,18.39,-14.45,-45.94
97643,-0.54,-2.95,9.45,0.01,-0.09,0.01,18.68,-14.41,-45.97
97783,-0.48,-2.74,9.34,0.04,-0.08,0.04,18.62,-14.22,-46.14
97922,-0.50,-1.57,9.96,0.04,-0.19,0.39,18.36,-14.10,-44.99
98062,-0.44,-0.67,10.09,-0.19,-0.37,1.04,17.36,-13.49,-46.49
98202,-0.72,-2.92,9.53,-0.05,-0.57,1.58,16.69,-11.66,-46.19
98347,-0.65,-3.17,9.51,0.00,-0.44,1.57,15.74,-11.14,-46.78
98487,-0.98,-3.10,10.38,0.00,-0.41,1.93,15.70,-10.29,-47.40
98626,-1.30,-4.96,10.48,-0.03,-0.75,1.34,12.76,-8.68,-47.16
98766,-0.41,-3.00,9.12,0.07,-0.49,0.88,9.78,-7.99,-45.40
98906,-0.33,-2.75,9.47,0.25,0.14,0.81,9.81,-7.60,-44.64
99045,-0.36,-3.58,10.26,0.14,0.05,0.26,11.79,-8.77,-45.67
99185,-0.53,-2.63,9.39,0.06,-0.12,0.01,11.31,-8.07,-44.80
99325,-0.20,-2.43,9.72,0.12,-0.14,-0.08,11.14,-8.01,-46.21
99464,-0.01,-2.20,9.70,-0.02,-0.02,0.02,10.79,-8.04,-45.72
99625,0.06,-2.09,9.79,0.01,-0.08,0.00,10.64,-8.87,-45.12
99765,0.05,-2.00,9.92,-0.11,0.02,0.00,10.86,-8.64,-45.13
99905,0.00,-2.32,9.73,0.05,0.01,-0.01,11.60,-8.58,-45.05
100044,-0.27,-2.41,9.63,-0.02,-0.00,0.03,10.98,-8.17,-45.09
100184,-0.20,-2.38,9.67,0.12,-0.02,-0.00,11.41,-8.35,-44.84
100324,-0.21,-2.24,9.80,0.05,-0.02,0.00,11.82,-8.56,-45.57
100463,-0.21,-2.16,9.72,0.07,-0.04,0.00,12.26,-9.02,-45.59
100603,-0.28,-2.27,9.77,-0.09,-0.03,-0.01,11.87,-9.32,-44.77
100743,-0.33,-2.10,9.47,0.00,-0.05,-0.02,11.52,-9.32,-45.25
100888,-0.14,-2.25,9.76,0.16,-0.09,-0.01,11.81,-9.54,-44.96
101028,-0.32,-1.88,9.51,-0.06,-0.02,0.03,11.34,-9.78,-45.25
101167,-0.10,-1.92,9.92,0.01,-0.06,-0.00,11.91,-9.68,-45.31
101307,-0.22,-2.06,9.67,-0.04,-0.04,-0.01,11.97,-10.00,-45.07
101447,-0.16,-2.01,9.69,0.03,-0.06,-0.03,11.37,-10.39,-46.64
101587,-0.16,-2.03,9.70,-0.02,-0.06,-0.02,11.62,-9.91,-45.12
101727,-0.34,-2.13,9.59,-0.10,-0.03,-0.02,7.66,-9.03,-45.60
101867,-0.11,-2.18,9.83,0.13,-0.12,-0.00,11.21,-9.53,-45.05
102011,-0.07,-1.97,9.74,-0.01,-0.07,-0.02,10.35,-9.44,-44.65
102151,-0.08,-2.22,9.72,0.01,-0.09,-0.02,10.42,-9.51,-45.15
102291,0.01,-2.13,9.74,-0.01,-0.05,-0.03,10.52,-9.08,-44.24
102430,0.10,-2.15,9.58,0.05,-0.09,-0.03,9.31,-9.60,-45.22
102570,0.13,-2.02,9.73,0.05,-0.09,-0.02,9.82,-9.76,-44.99
102709,0.18,-1.89,9.69,0.03,-0.06,0.01,10.08,-9.65,-43.47
102849,0.14,-2.05,9.81,0.03,-0.07,-0.01,9.92,-9.89,-44.48
102989,0.17,-2.04,9.70,-0.02,-0.05,-0.03,9.88,-10.20,-45.44
103128,0.17,-1.99,9.69,-0.02,-0.03,-0.01,9.46,-8.96,-48.17
103264,0.22,-1.96,9.78,0.05,-0.07,0.00,9.38,-10.00,-45.63
103404,0.23,-1.90,9.79,0.03,-0.06,-0.00,9.62,-10.80,-45.43
103543,0.20,-1.91,9.78,0.02,-0.05,-0.01,9.92,-10.95,-47.59
103683,0.28,-1.90,9.75,0.01,-0.04,-0.01,9.28,-10.57,-45.28
103839,0.24,-1.85,9.76,0.03,-0.03,0.00,9.81,-10.08,-45.13
103984,0.20,-1.91,9.77,0.02,-0.03,0.01,9.65,-10.33,-43.79
104124,0.15,-1.85,9.80,0.02,-0.02,0.01,10.49,-10.00,-45.62
104263,0.16,-1.86,9.77,0.01,-0.03,0.01,10.27,-10.33,-44.48
104409,0.09,-1.87,9.83,0.01,-0.04,0.02,10.87,-10.49,-44.43
104548,0.07,-1.85,9.70,0.01,-0.03,-0.01,10.54,-10.48,-44.83
104688,0.11,-1.89,9.78,-0.04,-0.03,-0.00,10.51,-10.33,-45.07
104828,0.11,-1.79,9.80,0.05,-0.04,0.00,10.36,-10.35,-44.40
104967,0.07,-1.90,9.74,0.02,-0.06,-0.00,10.64,-10.17,-41.39
105107,0.14,-1.86,9.77,0.01,-0.06,-0.01,10.80,-10.82,-43.96
105247,0.13,-1.89,9.72,0.03,-0.06,-0.02,10.46,-10.90,-44.49
105386,0.14,-1.83,9.75,0.02,-0.05,-0.01,10.20,-10.70,-46.01
105526,0.17,-1.75,9.77,-0.01,-0.04,-0.00,10.65,-10.23,-44.87
105662,0.13,-1.81,9.81,0.02,-0.04,0.00,11.05,-10.54,-45.59
105801,0.14,-1.81,9.71,0.01,-0.04,0.01,10.17,-10.42,-46.10
105941,0.11,-1.82,9.82,0.04,-0.05,-0.00,10.64,-10.44,-45.64
106081,0.10,-2.06,9.85,0.02,-0.05,-0.02,10.61,-10.70,-46.36
106220,0.12,-1.90,9.65,-0.03,-0.05,-0.02,10.67,-10.96,-45.02
106360,0.08,-1.93,9.85,0.01,-0.02,0.00,10.70,-10.33,-45.40
106500,0.14,-1.85,9.83,0.08,-0.07,-0.04,10.29,-10.90,-45.78
106639,0.21,-1.89,9.77,0.05,-0.08,-0.01,10.54,-10.87,-45.50
106785,0.18,-1.89,9.84,-0.02,-0.04,0.00,10.39,-10.73,-45.98
106924,0.30,-1.73,9.82,0.05,-0.07,-0.03,10.13,-10.35,-45.85
107064,0.22,-1.90,9.70,0.01,-0.04,-0.01,10.22,-10.87,-45.97
107204,0.24,-1.87,9.77,0.00,-0.04,0.00,10.07,-10.96,-45.26
107343,0.19,-1.86,9.79,0.01,-0.05,-0.01,10.17,-10.99,-45.73
107483,0.21,-1.76,9.65,0.02,-0.06,-0.02,10.19,-11.20,-45.10
107623,0.23,-1.65,9.79,-0.05,-0.08,0.01,9.98,-11.20,-45.45
107762,0.44,-1.66,9.86,0.05,-0.06,-0.03,10.07,-11.18,-45.21
107908,0.25,-1.79,9.75,0.01,-0.05,-0.01,9.63,-10.51,-44.84
108047,0.31,-1.81,9.81,-0.00,-0.05,-0.02,10.04,-14.83,-45.57
108187,0.27,-1.82,9.77,0.00,-0.04,0.00,9.47,-10.84,-45.22
108327,0.30,-1.84,9.71,0.04,-0.06,-0.01,9.18,-11.24,-45.34
108466,0.27,-1.69,9.80,-0.01,-0.05,-0.04,9.11,-11.41,-45.75
108606,0.33,-1.78,9.74,0.03,-0.05,-0.01,8.99,-11.82,-45.54
108746,0.38,-1.71,9.87,0.00,-0.05,0.00,9.24,-11.11,-45.73
108885,0.30,-1.75,9.73,0.01,-0.05,-0.02,9.13,-11.14,-45.18
109025,0.32,-1.72,9.86,0.03,-0.06,-0.01,8.93,-11.52,-44.88
109170,0.37,-1.65,9.79,-0.01,-0.04,-0.01,9.00,-11.06,-44.91
109310,0.43,-1.66,9.84,0.10,-0.06,0.00,9.41,-11.43,-44.65
109450,0.36,-1.67,9.77,-0.01,-0.04,0.03,9.41,-11.21,-45.89
109589,0.27,-1.80,9.50,0.24,-0.14,-0.14,9.08,-11.68,-46.27
109729,-1.14,-2.25,8.03,0.70,-0.32,-1.85,7.21,-16.76,-45.91
109869,-0.58,1.40,7.50,1.07,0.04,-2.80,11.58,-28.79,-47.88
110008,-1.56,3.05,6.72,1.97,-0.03,-3.01,21.89,-36.89,-39.27
110148,-3.22,5.24,6.25,1.66,0.42,-3.03,28.06,-39.04,-28.34
110293,-4.74,6.81,6.76,2.09,0.39,-1.40,31.76,-43.23,-17.38
110433,-6.08,5.55,7.14,2.07,-0.44,-0.88,34.64,-44.94,-5.17
110573,-7.32,6.64,3.89,0.31,-0.43,-1.15,40.00,-45.38,0.45
110712,-7.52,5.89,4.01,0.84,-0.52,-0.85,43.20,-45.09,2.72
110852,-7.50,6.20,3.00,0.91,-0.11,-0.56,47.59,-42.66,5.29
110992,-7.78,5.17,3.21,0.15,0.15,-0.40,48.86,-40.91,6.91
111131,-7.67,6.27,3.54,-0.15,0.00,-0.20,50.12,-40.05,8.54
111271,-7.98,4.80,2.93,0.29,-0.09,-0.24,49.96,-38.76,7.94
111411,-7.93,4.63,3.18,0.04,-0.05,-0.10,50.77,-38.76,8.67
111556,-8.27,4.08,2.94,-0.10,0.02,-0.00,49.88,-38.25,8.62
111696,-8.15,4.30,3.42,-0.11,0.03,0.02,51.14,-38.95,8.89
111835,-8.26,4.13,2.99,-0.01,-0.07,0.01,50.54,-38.48,8.17
111975,-8.12,4.16,2.83,0.05,-0.00,-0.04,50.86,-38.19,9.08
112115,-8.19,4.39,3.22,0.01,0.05,-0.01,50.67,-38.45,9.68
112254,-8.34,4.21,2.95,-0.02,-0.08,-0.01,50.16,-38.38,8.77
112394,-8.34,4.24,2.82,-0.03,-0.03,0.00,50.38,-38.35,9.25
112534,-8.29,4.36,2.86,-0.01,-0.06,0.02,50.10,-38.61,8.73
112673,-8.29,4.35,2.88,-0.01,-0.04,0.01,50.35,-38.29,8.01
112818,-8.39,4.26,2.95,0.01,-0.05,0.01,49.87,-38.75,9.54
112958,-8.35,4.30,2.92,-0.06,-0.01,-0.01,50.63,-39.40,8.80
113097,-8.30,4.34,2.78,-0.01,-0.06,0.04,49.68,-38.89,8.89
113237,-8.33,4.30,2.81,0.03,-0.08,-0.02,50.09,-38.72,8.13
113376,-8.23,4.45,3.08,0.00,-0.05,-0.01,49.90,-39.01,8.30
113516,-8.25,4.10,2.89,-0.01,-0.09,0.02,48.90,-39.01,7.72
113656,-8.25,4.34,3.03,-0.01,-0.03,0.00,49.88,-39.26,8.04
113795,-8.23,4.34,3.21,-0.00,-0.05,-0.00,49.66,-38.78,8.35
113940,-8.17,4.47,2.97,-0.00,-0.06,-0.06,49.96,-39.16,8.39
114080,-8.22,4.44,3.04,0.02,-0.07,0.03,49.49,-38.67,7.44
114219,-8.21,4.29,3.06,0.03,-0.08,-0.01,48.87,-39.10,6.59
114359,-8.22,4.30,3.06,-0.01,-0.03,-0.02,49.53,-39.04,7.80
114499,-8.25,4.21,3.09,0.03,-0.03,-0.04,48.93,-38.63,7.91
114638,-8.26,4.23,3.00,0.01,-0.02,-0.04,49.25,-38.83,6.68
114778,-8.28,4.30,2.98,0.02,-0.02,-0.03,50.22,-38.79,7.25
114917,-8.27,4.26,3.03,-0.00,-0.01,-0.03,50.34,-39.01,7.79
115057,-8.29,4.28,2.98,0.00,0.01,0.04,50.23,-38.91,8.16
115202,-8.35,4.00,3.12,-0.01,0.01,0.01,49.44,-39.35,8.02
115341,-8.33,4.18,2.85,-0.03,-0.00,0.01,50.13,-38.54,8.84
115481,-8.33,4.04,2.89,0.00,-0.01,-0.02,49.42,-38.72,8.65
115621,-8.33,4.31,2.76,0.02,-0.05,-0.04,49.52,-39.14,8.87
115760,-8.33,4.26,2.97,0.01,-0.02,-0.02,50.10,-38.83,9.24
115900,-8.35,4.23,2.88,-0.00,-0.05,0.01,49.97,-38.92,8.64
116040,-8.40,4.11,2.77,0.01,-0.05,-0.00,49.25,-39.43,7.73
116179,-8.40,4.29,2.82,0.03,-0.05,-0.00,49.85,-39.17,9.82
116319,-8.41,4.18,2.73,-0.00,-0.03,0.01,50.20,-38.92,9.37
116464,-8.38,4.16,2.76,0.01,-0.04,-0.00,50.32,-39.02,8.48
116604,-8.36,4.27,2.85,0.02,-0.04,-0.00,50.18,-38.82,8.33
116744,-8.38,4.16,2.87,-0.00,-0.04,-0.00,49.74,-38.82,9.24
116883,-8.42,4.21,2.89,-0.01,-0.04,-0.01,50.04,-38.85,9.19
117023,-8.39,4.23,2.73,0.01,-0.04,0.00,50.48,-38.50,8.96
117163,-8.39,4.11,2.95,-0.00,-0.04,-0.00,49.74,-38.83,9.16
117302,-8.39,4.14,2.76,0.02,-0.04,-0.00,49.59,-39.02,9.05
117442,-8.38,4.18,2.82,0.00,-0.03,0.00,49.97,-39.07,9.66
117586,-8.39,4.20,2.84,0.01,-0.04,0.00,49.11,-39.43,9.43
117726,-8.39,4.13,2.83,0.02,-0.04,-0.01,50.50,-38.95,9.40
117866,-8.39,4.23,2.72,0.00,-0.05,-0.01,49.49,-39.89,8.94
118005,-8.39,4.15,2.84,-0.01,-0.03,-0.00,49.43,-39.30,9.05
118145,-8.40,4.19,2.76,0.01,-0.06,-0.00,48.99,-39.40,9.50
118285,-8.40,4.15,2.75,0.01,-0.05,-0.00,49.44,-38.82,9.32
118424,-8.34,4.23,2.83,-0.02,-0.03,0.01,49.14,-39.51,8.18
118564,-8.35,4.15,2.89,0.01,-0.03,-0.00,48.73,-39.18,9.62
118704,-8.41,4.19,2.71,0.01,-0.04,-0.00,48.71,-38.85,9.35
118865,-8.35,4.26,2.84,0.01,-0.04,0.01,49.28,-38.91,8.81
119004,-8.40,4.17,2.79,-0.00,-0.03,0.01,49.27,-38.59,8.73
119144,-8.39,4.29,2.75,0.02,-0.06,-0.01,49.49,-39.24,8.62
119284,-8.39,4.26,2.70,0.02,-0.05,0.01,48.70,-39.16,8.42
119423,-8.44,4.23,2.73,0.01,-0.04,-0.00,49.71,-39.54,8.29
119563,-8.42,4.15,2.80,0.02,-0.05,0.01,49.34,-39.83,8.48
119703,-8.39,4.28,2.62,0.03,-0.07,-0.00,49.52,-39.18,9.59
119842,-8.39,4.20,2.74,0.02,-0.04,0.00,50.04,-39.08,8.84
119982,-8.38,4.26,2.78,0.01,-0.04,0.00,49.52,-38.97,9.73
120127,-8.39,4.23,2.77,-0.00,-0.04,0.01,49.77,-38.98,8.87
120267,-8.35,4.21,2.83,0.01,-0.05,-0.01,49.18,-39.29,9.62
120407,-8.34,4.39,2.79,0.02,-0.09,-0.01,50.56,-39.26,9.27
120546,-8.35,4.22,2.80,-0.01,-0.05,0.02,50.35,-39.33,8.61
120692,-8.33,4.21,3.77,-0.06,-0.14,-0.00,50.38,-39.90,7.97
120832,-8.29,3.86,6.42,-0.35,-0.49,-0.03,50.77,-40.19,5.28
120971,-8.14,4.62,6.96,-0.38,-1.27,0.01,52.03,-40.54,-2.50
121111,-7.87,3.96,7.67,-0.18,-1.82,-0.08,51.94,-40.95,-11.06
121256,-6.53,3.93,8.09,-0.67,-1.96,0.05,48.96,-40.62,-25.12
121396,-3.96,2.82,7.62,-0.55,-1.73,0.15,41.07,-39.26,-35.24
121536,-1.37,1.92,8.83,-0.68,-0.99,0.17,34.08,-37.12,-41.61
121675,0.02,1.07,8.81,0.03,-0.97,0.05,28.18,-35.02,-43.80
121815,1.19,1.10,8.15,-0.32,-0.45,-0.14,24.19,-34.76,-45.22
121955,1.65,0.66,8.73,-0.45,-0.13,-0.08,22.93,-32.90,-46.55
122094,1.88,0.57,9.33,-0.02,-0.10,-0.24,23.09,-31.95,-46.64
122234,2.08,0.86,9.82,-0.11,-0.14,-0.14,22.64,-31.73,-46.64
122374,2.08,0.38,10.12,-0.07,0.00,-0.05,22.16,-31.16,-46.43
122519,2.02,0.82,9.57,0.01,-0.05,-0.16,23.09,-30.61,-46.35
122659,1.91,0.17,9.45,-0.11,-0.03,-0.16,23.30,-29.33,-47.24
122798,1.85,0.32,9.68,-0.07,-0.02,-0.20,23.76,-29.96,-46.81
122938,1.88,0.61,9.75,0.02,-0.03,-0.15,24.41,-29.01,-48.44
123078,1.82,0.25,9.27,-0.05,-0.02,-0.00,24.61,-29.09,-46.99
123217,1.73,0.35,9.84,-0.04,0.01,0.02,25.50,-28.88,-47.28
123357,1.72,0.03,9.58,-0.00,-0.05,0.07,23.87,-28.05,-48.03
123497,1.69,0.16,9.86,-0.02,0.01,-0.00,24.93,-29.01,-47.94
123642,1.66,0.04,9.78,0.06,-0.01,-0.04,25.17,-28.72,-47.95
123782,1.60,0.35,9.98,0.02,-0.01,-0.01,25.83,-28.69,-46.90
123921,1.67,0.32,9.91,0.02,-0.05,-0.02,25.40,-29.14,-47.16
124061,1.67,0.40,9.71,0.10,-0.05,0.04,26.32,-29.42,-46.68
124201,1.60,0.30,9.82,-0.02,-0.08,0.01,25.94,-29.13,-47.63
124340,1.63,0.43,9.85,-0.00,-0.05,-0.01,26.07,-29.63,-46.30
124480,1.58,0.33,9.72,0.01,-0.05,0.01,24.83,-29.04,-46.57
124620,1.61,0.26,9.92,-0.06,-0.03,0.01,25.37,-28.72,-48.20
124759,1.64,0.16,9.94,0.00,-0.04,0.01,25.77,-28.82,-47.60
124905,1.59,0.23,9.69,0.01,-0.08,0.01,25.17,-28.66,-47.24
125045,1.59,0.21,9.63,0.03,-0.02,0.01,24.79,-28.52,-47.73
125185,1.53,-0.01,9.92,0.05,0.02,0.03,25.65,-28.79,-47.69
125325,1.57,0.28,9.85,0.04,-0.04,0.04,24.98,-28.79,-46.76
125464,1.56,0.67,9.48,0.03,-0.09,0.01,25.08,-29.22,-47.98
125604,1.55,0.19,9.75,0.02,-0.01,0.02,24.09,-29.76,-47.97
125744,1.55,0.36,9.92,0.08,-0.03,-0.02,24.61,-29.03,-48.28
125883,1.54,0.30,9.89,-0.00,-0.02,-0.02,25.20,-28.91,-47.37
126023,1.54,0.47,9.98,0.00,-0.03,-0.03,25.78,-26.37,-47.65
126168,1.48,0.58,9.56,0.01,-0.05,0.01,25.59,-30.01,-47.24
126308,1.47,0.36,9.84,0.05,-0.04,0.02,25.50,-29.82,-47.90
126448,1.45,0.53,9.94,-0.00,-0.04,0.01,25.56,-29.74,-48.00
126587,1.49,0.49,9.83,0.02,-0.07,0.01,25.33,-30.05,-47.69
126727,1.49,0.46,9.79,0.03,-0.06,0.02,25.12,-29.45,-48.19
126867,1.48,0.35,9.90,0.03,-0.06,0.01,24.85,-29.70,-46.48
127006,1.50,0.46,9.87,0.02,-0.06,-0.02,25.40,-30.23,-46.70
127146,1.52,0.47,9.82,0.01,-0.08,-0.03,24.69,-30.05,-47.49
127291,1.57,0.58,9.74,0.02,-0.05,-0.02,24.48,-29.47,-47.50
127430,1.57,0.47,9.84,0.01,-0.05,0.01,24.88,-29.83,-47.71
127570,1.57,0.55,9.73,0.01,-0.06,0.01,25.04,-30.12,-47.25
127709,1.55,0.35,9.77,0.01,-0.04,0.02,24.25,-29.95,-47.16
127849,1.55,0.32,9.86,0.02,-0.05,-0.01,24.04,-30.31,-46.13
127989,1.59,0.49,9.87,0.00,-0.05,-0.01,25.07,-30.28,-46.13
128128,1.60,0.56,9.78,-0.01,-0.03,-0.02,25.12,-29.55,-46.99
128268,1.58,0.55,9.78,0.02,-0.06,-0.02,24.99,-29.82,-47.53
128408,1.57,0.42,9.69,0.01,-0.04,0.00,24.22,-29.10,-47.27
128553,1.58,0.51,9.83,0.01,-0.03,-0.00,24.25,-30.46,-47.47
128693,1.57,0.42,9.84,0.01,-0.05,-0.01,24.25,-29.68,-47.56
128833,1.57,0.47,9.74,0.01,-0.04,-0.01,23.97,-30.18,-48.25
128972,1.62,0.57,9.78,0.00,-0.03,-0.01,24.60,-30.30,-47.75
129112,1.61,0.42,10.04,0.03,-0.06,-0.00,24.12,-29.76,-48.48
129251,1.61,0.76,9.71,0.04,-0.11,0.08,23.68,-29.95,-47.72
129391,1.84,0.64,10.31,-0.05,-0.17,0.14,23.63,-29.80,-47.59
129531,2.13,1.23,10.51,0.65,-0.62,0.65,20.36,-31.37,-47.75
129676,2.29,1.32,11.39,0.70,-0.98,1.07,12.35,-33.79,-45.79
129816,4.23,1.33,9.40,0.81,-1.19,1.17,2.43,-37.37,-43.00
129956,6.40,1.19,8.32,0.71,-1.55,1.20,-7.75,-36.71,-35.87
130095,7.72,0.55,6.24,0.36,-1.46,1.18,-16.84,-33.47,-26.73
130235,8.19,-2.15,2.18,0.72,-1.33,0.64,-22.61,-28.62,-18.66
130375,8.95,-1.11,2.74,0.11,-0.86,0.35,-24.86,-27.08,-12.96
130514,9.64,-1.08,0.85,0.46,-0.89,0.34,-26.38,-26.03,-7.00
130654,9.47,-1.71,0.27,0.15,-0.46,0.39,-26.50,-23.74,-2.79
130793,9.57,-1.60,-0.26,0.06,-0.40,0.15,-26.89,-21.98,-0.20
130939,9.59,-2.15,-0.20,0.01,-0.05,0.06,-27.08,-22.23,1.39
131079,9.59,-1.65,-0.20,0.02,-0.03,-0.02,-26.91,-21.88,-0.38
131218,9.59,-1.72,0.07,0.01,-0.07,0.03,-27.87,-21.38,0.99
131358,9.66,-1.49,-0.00,-0.00,-0.03,0.06,-26.88,-21.06,0.16
131498,9.56,-2.22,-0.13,-0.01,-0.12,0.01,-28.37,-20.67,-0.07
131637,9.53,-1.79,-0.08,-0.05,-0.02,0.02,-27.95,-20.52,0.41
131777,9.59,-1.79,-0.19,0.00,-0.03,-0.01,-27.26,-21.32,0.04
131916,9.60,-1.79,0.17,0.01,-0.04,-0.02,-27.97,-21.46,0.04
132062,9.54,-1.62,-0.15,0.00,-0.06,0.02,-27.33,-21.00,0.26
132202,9.61,-1.91,-0.21,0.01,-0.05,0.01,-27.36,-20.83,-0.06
132341,9.57,-1.86,-0.14,0.01,-0.03,0.01,-27.04,-20.43,0.82
132481,9.62,-1.83,0.13,0.04,-0.01,-0.03,-27.30,-20.34,-0.23
132626,9.62,-2.00,0.04,0.01,-0.06,0.03,-27.54,-21.05,-0.56
132766,9.59,-2.20,0.13,-0.03,-0.03,-0.06,-27.38,-20.87,-0.06
132906,9.64,-1.52,0.18,-0.01,-0.00,-0.05,-27.21,-22.05,-0.29
133045,9.66,-1.53,-0.03,0.02,-0.09,-0.03,-27.19,-21.03,-0.44
133185,9.57,-1.83,0.00,-0.00,-0.06,0.02,-26.78,-21.79,-0.82
133331,9.46,-1.77,-0.21,-0.01,-0.04,-0.01,-26.63,-21.73,-1.26
133470,9.73,-1.64,0.07,0.02,-0.02,0.00,-26.00,-21.27,-1.61
133610,9.58,-1.78,0.02,0.02,-0.02,-0.01,-26.78,-22.07,-0.70
133750,9.68,-1.74,0.36,0.00,-0.02,-0.01,-25.94,-21.24,-0.58
133889,9.65,-1.71,0.20,0.02,-0.05,-0.01,-26.70,-21.85,-1.13
134029,9.62,-1.76,0.22,0.03,-0.07,0.02,-27.80,-20.94,-0.38
134168,9.61,-1.81,0.14,-0.00,-0.02,-0.02,-26.64,-20.96,-0.31
134308,9.63,-1.74,0.06,0.04,-0.03,0.01,-27.27,-21.28,-0.99
134454,9.63,-1.70,0.16,0.02,-0.07,-0.04,-26.95,-21.78,-1.32
134593,9.66,-1.59,0.21,0.01,-0.02,-0.01,-27.10,-21.32,-1.80
134733,9.62,-1.68,0.06,0.00,-0.04,0.01,-27.04,-21.67,-1.75
134873,9.64,-1.74,0.09,0.01,-0.05,-0.00,-27.65,-21.22,-1.78
135012,9.64,-1.72,0.29,0.01,-0.06,0.00,-27.81,-21.56,-1.40
135152,9.60,-1.68,0.07,0.01,-0.02,-0.00,-27.35,-21.72,-1.80
135291,9.65,-1.77,0.24,0.02,-0.07,-0.01,-27.19,-21.56,-1.36
135431,9.63,-1.76,0.17,-0.01,-0.04,0.01,-27.43,-20.97,-1.65
135577,9.66,-1.71,0.20,0.01,-0.06,0.01,-27.42,-21.53,-1.42
135716,9.59,-1.82,0.01,0.01,-0.06,0.01,-27.87,-21.31,-1.64
135856,9.62,-1.80,0.24,0.02,-0.05,0.00,-27.81,-21.34,-0.96
135996,9.61,-1.73,0.07,0.01,-0.06,-0.01,-27.49,-21.44,-0.96
136135,9.64,-1.80,0.15,0.01,-0.04,-0.00,-27.97,-22.05,-3.42
136275,9.66,-1.72,0.13,0.01,-0.05,-0.01,-27.51,-21.81,-0.58
136415,9.63,-1.78,0.08,0.00,-0.05,-0.00,-27.52,-21.53,0.00
136554,9.59,-1.76,0.13,0.01,-0.05,-0.00,-28.12,-21.25,-1.11
136694,9.61,-1.79,0.12,-0.01,-0.06,-0.00,-27.01,-21.46,-0.70
136839,9.61,-1.76,0.16,0.01,-0.03,-0.00,-27.17,-22.03,-0.83
136979,9.58,-1.81,0.00,0.02,-0.06,0.00,-27.35,-21.47,0.25
137119,9.63,-1.81,0.29,0.01,-0.03,-0.01,-27.59,-21.82,-1.33
137258,9.65,-1.71,0.06,0.01,-0.04,-0.00,-27.55,-20.87,-2.00
137398,9.57,-1.84,0.03,0.01,-0.05,-0.03,-28.47,-21.21,-1.64
137538,9.68,-1.62,0.05,0.01,-0.04,-0.02,-28.08,-21.59,-0.28
137683,9.78,-1.79,0.23,0.04,-0.09,-0.00,-28.34,-21.06,-2.18
137823,9.51,-1.84,0.14,-0.01,-0.02,0.06,-27.62,-21.18,-1.67
137983,9.59,-1.77,0.07,-0.01,-0.00,0.01,-27.86,-21.41,-1.48
138123,9.63,-1.83,0.15,0.01,-0.01,-0.01,-27.21,-21.08,-1.20
138262,9.65,-1.81,0.10,0.02,-0.04,0.01,-28.00,-20.93,-0.67
138402,9.56,-2.05,0.57,0.01,-0.08,-0.00,-27.73,-21.32,-1.52
138541,9.55,-1.67,-0.10,-0.01,0.02,-0.02,-28.30,-21.03,-0.79
138681,9.41,-2.27,-0.01,0.02,-0.08,-0.06,-27.81,-21.46,-1.97
138821,9.45,-2.34,-0.07,0.01,0.09,-0.39,-27.08,-22.99,-2.56
138960,9.42,-2.00,0.13,-0.04,0.39,-0.80,-27.33,-26.92,-3.99
139100,8.96,0.32,1.22,-0.32,0.58,-1.22,-24.96,-33.48,-8.42
139246,8.58,2.86,2.88,-0.92,0.89,-1.05,-21.08,-40.15,-15.61
139385,8.24,2.60,4.05,-1.15,0.88,-0.83,-15.42,-42.62,-22.70
139525,6.97,2.57,6.23,-1.71,1.17,-0.76,-8.78,-40.88,-34.86
139665,5.33,1.74,7.67,-1.04,1.30,-0.68,0.18,-38.00,-42.81
139804,4.56,2.21,10.45,-0.82,0.88,-0.34,7.47,-33.78,-46.96
139944,3.51,0.17,8.24,-0.52,0.65,-0.23,12.29,-31.28,-49.30
140083,2.83,0.37,10.31,-0.21,0.51,-0.16,18.61,-28.18,-50.12
140223,2.07,0.00,9.68,-0.01,0.46,-0.25,21.35,-28.79,-51.20
140369,1.82,0.12,10.42,-0.01,0.13,-0.12,24.12,-27.48,-51.11
140508,1.49,-0.08,9.83,-0.06,0.08,-0.03,24.69,-26.88,-51.21
140648,1.41,-0.02,9.66,0.04,0.05,-0.05,25.49,-26.53,-50.04
140788,1.33,-0.02,10.08,0.13,0.01,0.03,25.64,-28.18,-49.33
140927,1.29,-0.76,10.21,-0.07,0.06,0.02,25.78,-26.35,-50.42
141067,1.28,-0.20,9.96,-0.05,-0.04,-0.02,26.48,-26.19,-49.59
141207,1.18,-0.26,9.44,0.08,-0.03,-0.07,26.34,-26.73,-49.37
141346,1.22,-0.11,9.89,0.01,-0.02,-0.04,26.91,-26.85,-49.12
141486,1.24,-0.31,9.85,0.00,-0.05,0.00,27.65,-26.89,-48.45
141631,1.21,-0.21,9.86,-0.02,-0.07,0.00,27.90,-27.49,-48.32
141771,1.25,-0.23,9.82,0.01,-0.06,0.01,27.51,-26.53,-48.71
141911,1.19,-0.16,9.80,0.02,-0.07,-0.02,27.07,-26.79,-48.82
142050,1.31,-0.06,9.96,0.01,-0.07,-0.01,27.70,-26.57,-47.71
142190,1.31,-0.23,9.92,-0.01,-0.04,-0.01,27.10,-26.72,-48.49
142330,1.27,-0.32,9.88,-0.01,-0.03,-0.00,27.19,-26.32,-47.98
142469,1.27,-0.36,9.86,-0.00,-0.06,0.00,26.66,-26.02,-48.61
142609,1.29,-0.34,9.95,-0.01,-0.04,0.01,27.39,-26.09,-47.90
142754,1.33,-0.33,9.96,-0.02,-0.03,0.02,27.48,-26.31,-48.54
142894,1.31,-0.39,9.85,-0.02,-0.04,0.02,26.95,-26.10,-48.58
143034,1.38,-0.43,9.96,0.00,-0.06,-0.01,27.01,-26.03,-47.95
143173,1.35,-0.44,9.76,0.00,-0.05,-0.02,26.67,-26.09,-47.91
143313,1.36,-0.42,9.85,0.01,-0.04,-0.02,26.72,-25.96,-48.74
143453,1.36,-0.52,9.94,0.00,-0.04,-0.00,26.22,-26.32,-49.68
143592,1.37,-0.45,9.83,0.00,-0.06,-0.01,26.09,-25.36,-48.09
143732,1.34,-0.44,9.63,-0.01,-0.05,-0.00,26.60,-25.48,-48.01
143877,1.35,-0.53,9.80,-0.01,-0.04,0.01,27.30,-25.29,-47.94
144017,1.38,-0.55,9.92,0.01,-0.05,-0.00,27.26,-24.96,-47.71
144157,1.33,-0.61,9.91,0.00,-0.05,-0.00,27.58,-25.61,-48.70
144296,1.36,-0.49,9.75,0.01,-0.05,-0.01,27.61,-25.42,-48.25
144436,1.35,-0.56,9.86,-0.01,-0.06,0.00,27.30,-26.15,-47.62
144576,1.35,-0.54,9.72,-0.02,-0.06,0.00,26.88,-24.86,-47.65
144715,1.37,-0.58,9.96,0.01,-0.04,-0.02,26.70,-25.43,-47.49
144855,1.39,-0.48,9.94,0.02,-0.04,-0.00,26.73,-25.48,-48.11
144995,1.36,-0.60,9.93,-0.02,-0.03,-0.01,27.14,-25.07,-48.47
145140,1.34,-0.48,9.73,0.01,-0.06,0.00,27.26,-24.95,-46.77
145280,1.38,-0.68,9.99,-0.01,-0.05,-0.00,26.40,-24.83,-49.08
145419,1.37,-0.53,9.97,0.02,-0.03,-0.02,27.51,-24.93,-48.96
145559,1.37,-0.55,9.91,0.01,-0.08,-0.00,27.51,-24.58,-48.42
145699,1.34,-0.67,9.52,0.01,-0.05,-0.01,27.43,-25.15,-48.52
145838,1.36,-0.61,9.87,0.01,-0.04,-0.02,27.29,-25.04,-49.05
145978,1.45,-0.26,9.90,-0.04,-0.08,0.08,27.70,-24.50,-49.75
146118,1.67,0.13,10.28,-0.28,-0.38,0.67,26.15,-23.27,-49.59
146263,1.98,-0.13,10.15,-0.31,-0.30,0.84,23.62,-21.37,-49.63
146403,1.81,-1.90,9.77,0.68,-0.57,0.97,19.32,-22.10,-50.13
146542,1.94,-1.86,9.09,-0.63,-0.24,1.20,17.20,-20.84,-49.39
146682,1.77,-3.59,9.62,-0.16,-0.41,1.33,15.00,-16.94,-48.95
146822,1.63,-2.59,8.90,0.50,-0.38,1.13,13.90,-16.75,-49.78
146961,1.38,-2.96,8.69,0.44,-0.38,1.22,12.48,-16.71,-48.39
147101,1.01,-3.72,8.99,0.37,-0.33,1.28,11.18,-16.18,-48.10
147241,0.80,-3.65,8.64,0.13,0.00,0.97,11.71,-15.55,-47.53
147380,0.48,-2.62,8.89,0.28,-0.01,0.92,12.73,-14.76,-47.47
147526,0.38,-3.42,9.56,0.85,-0.35,0.75,13.52,-16.65,-48.23
147666,0.43,-2.51,9.80,0.44,-0.05,0.52,12.58,-19.35,-47.81
147805,0.36,-1.81,9.71,0.33,0.02,0.29,13.43,-21.00,-47.73
147945,0.35,-1.97,10.04,0.44,0.09,-0.15,13.49,-21.95,-48.01
148084,0.48,-0.76,9.72,0.02,-0.11,-0.19,13.56,-21.95,-48.23
148224,0.47,-0.98,9.95,-0.02,0.06,-0.02,14.57,-22.70,-47.52
148364,0.27,-1.16,9.61,0.02,-0.03,-0.03,14.38,-21.82,-47.18
148503,0.31,-1.16,10.20,0.01,-0.01,-0.01,15.39,-22.64,-47.25
148649,0.24,-1.06,9.88,0.02,-0.05,-0.02,15.19,-22.00,-47.25
148789,0.25,-1.02,10.00,0.03,-0.04,-0.04,14.48,-22.76,-47.54
148928,0.30,-0.91,9.89,0.01,-0.06,-0.04,14.63,-22.99,-46.84
149068,0.32,-0.87,9.83,0.08,-0.06,-0.04,11.81,-23.55,-46.89
149208,0.36,-0.94,9.96,0.06,-0.06,-0.03,15.35,-23.47,-47.60
149347,0.35,-0.80,9.94,0.01,-0.05,-0.01,14.29,-23.59,-46.76
149487,0.37,-0.87,9.80,-0.00,-0.04,0.00,14.91,-23.88,-48.39
149626,0.32,-0.80,9.93,0.02,-0.01,-0.02,14.79,-23.78,-47.68
149772,0.32,-0.86,9.81,0.03,-0.04,-0.02,15.16,-23.97,-48.10
149912,0.34,-0.80,9.81,0.02,-0.05,-0.01,14.83,-23.40,-47.84
150051,0.30,-0.76,9.98,0.02,-0.03,0.01,15.68,-23.31,-47.79
150191,0.26,-0.82,9.94,0.00,-0.03,-0.00,15.21,-23.56,-47.66
150331,0.26,-0.73,9.86,0.01,-0.05,0.01,15.20,-23.65,-47.91
150470,0.26,-0.76,9.75,0.04,-0.01,-0.00,15.95,-23.43,-48.10
150610,0.17,-0.81,9.94,0.02,-0.06,0.00,15.39,-24.01,-46.26
150750,0.22,-0.72,9.87,0.01,-0.03,-0.00,14.94,-23.57,-47.27
150889,0.19,-0.78,9.85,0.02,-0.05,0.01,15.73,-23.47,-47.41
151035,0.18,-0.74,9.96,0.02,-0.05,-0.01,15.36,-23.76,-47.84
151174,0.17,-0.74,9.87,0.02,-0.04,-0.01,16.12,-23.56,-46.59
151314,0.19,-0.76,9.87,0.01,-0.04,-0.01,16.21,-23.38,-47.24
151454,0.20,-0.73,9.95,0.01,-0.04,-0.01,15.20,-24.19,-47.27
151593,0.18,-0.75,9.78,0.01,-0.05,0.00,15.97,-23.81,-47.03
151733,0.19,-0.72,9.93,0.03,-0.04,-0.01,15.70,-23.44,-48.83
151873,0.17,-0.74,10.03,0.01,-0.06,-0.00,16.15,-24.12,-48.39
152012,0.17,-0.67,9.88,0.01,-0.05,-0.01,16.16,-23.21,-47.21
152157,0.15,-0.70,10.02,0.04,-0.05,-0.01,16.00,-23.79,-47.24
152296,0.26,-0.57,9.52,0.08,-0.05,-0.06,15.55,-24.55,-47.27
152436,0.27,-0.47,10.25,0.03,-0.07,-0.02,15.92,-24.74,-47.73
152576,0.29,-0.50,9.95,0.00,-0.07,-0.01,16.03,-24.38,-48.01
152715,0.34,-0.59,10.01,-0.01,-0.09,0.03,15.74,-23.90,-47.19
152855,0.26,0.13,9.90,-0.01,-0.13,0.20,15.32,-23.68,-47.15
152995,0.18,0.89,9.90,-0.13,-0.04,0.87,14.12,-22.24,-48.01
153134,-0.02,0.64,10.36,-0.15,-0.20,1.56,14.00,-20.01,-47.79
153274,-0.58,-2.32,9.44,0.02,-0.28,1.83,12.93,-18.30,-47.90
153419,-0.49,-1.95,9.71,0.29,-0.10,1.41,11.97,-17.99,-46.99
153559,0.07,0.26,9.72,0.27,-0.33,1.20,10.67,-18.14,-46.81
153699,-0.05,-2.36,9.77,0.21,-0.20,1.00,9.27,-16.88,-46.61
153838,0.37,0.01,9.77,-0.26,-0.36,1.47,8.49,-18.69,-45.22
153978,0.20,-1.94,10.26,-0.06,-0.03,0.38,7.10,-14.47,-45.07
154118,0.74,-0.67,10.43,-0.55,0.02,0.48,7.57,-11.65,-44.33
154257,0.73,-0.64,9.56,0.00,-0.11,-0.08,7.59,-11.30,-44.90
154397,0.81,-0.89,9.43,0.04,-0.07,-0.02,7.06,-11.14,-44.46
154547,0.56,-1.21,9.63,0.02,-0.02,0.04,7.75,-11.68,-44.15
154687,0.63,-0.73,9.76,0.01,-0.03,0.01,7.86,-12.36,-45.13
154827,0.70,-0.77,9.91,0.02,-0.01,0.01,8.83,-12.82,-45.18
154966,0.74,-0.73,9.93,-0.01,-0.04,0.01,8.16,-12.09,-43.69
155106,0.53,-0.94,9.91,0.01,-0.00,0.03,7.28,-12.09,-45.29
155246,0.72,-0.67,10.00,-0.01,-0.04,-0.01,7.94,-12.15,-43.95
155385,0.55,-0.95,9.85,-0.05,-0.02,0.03,7.79,-11.96,-44.11
155525,0.58,-0.75,9.70,0.04,-0.05,0.00,7.82,-12.19,-43.73
155665,0.55,-0.79,9.64,0.01,-0.05,0.00,8.58,-11.82,-44.80
155810,0.52,-0.97,9.89,0.03,-0.04,0.00,7.70,-12.57,-44.77
155950,0.56,-0.79,9.86,0.03,-0.05,-0.01,7.94,-12.36,-44.71
156089,0.61,-0.89,9.99,0.03,-0.05,-0.00,8.86,-12.42,-44.80
156229,0.58,-0.86,9.91,-0.00,-0.03,0.02,8.99,-11.91,-44.12
156369,0.56,-0.78,9.91,0.01,-0.03,0.01,8.62,-11.98,-44.12
156508,0.52,-0.93,9.92,-0.00,-0.03,0.01,9.31,-12.36,-44.93
156648,0.49,-0.91,9.81,0.01,-0.04,-0.01,9.00,-11.84,-44.91
156788,0.58,-0.78,10.04,0.03,-0.05,-0.02,8.13,-12.31,-45.59
156948,0.52,-0.89,9.93,0.01,-0.05,0.00,8.42,-11.87,-44.12
157087,0.42,-0.92,9.71,-0.01,-0.08,-0.02,8.05,-12.07,-44.80
157227,0.53,-0.90,9.89,0.02,-0.05,0.00,8.43,-12.55,-44.12
157367,0.52,-0.99,9.91,0.03,-0.06,-0.01,8.17,-11.91,-44.45
157506,0.58,-0.81,9.84,-0.00,-0.06,-0.01,8.51,-12.74,-44.99
157646,0.60,-0.85,9.94,-0.01,-0.04,0.00,7.89,-12.15,-44.88
157786,0.52,-1.14,10.01,0.07,-0.05,0.00,8.39,-11.71,-43.07
157925,0.60,-0.91,9.97,0.07,-0.04,-0.02,8.43,-12.79,-45.32
158065,0.60,-0.88,10.07,0.04,-0.04,-0.01,8.32,-12.99,-44.48
158210,0.63,-0.87,9.91,0.02,-0.05,0.01,8.02,-12.53,-45.62
158350,0.63,-0.77,9.88,0.02,-0.05,-0.01,8.32,-12.47,-44.50
158490,0.60,-0.76,9.90,0.03,-0.03,0.01,8.78,-12.58,-45.38
158629,0.62,-0.68,9.87,0.03,-0.05,-0.00,7.94,-13.15,-44.59
158769,0.56,-0.67,9.86,0.03,-0.03,0.01,8.46,-12.96,-43.79
158909,0.56,-0.72,9.89,0.02,-0.04,0.01,8.27,-12.96,-45.16
159048,0.50,-0.79,9.92,0.01,-0.04,0.00,8.55,-12.69,-46.43
159188,0.52,-0.65,9.95,0.02,-0.04,-0.00,8.62,-12.79,-45.21
159333,0.46,-0.82,9.83,0.01,-0.06,-0.01,8.45,-13.05,-44.88
159473,0.32,-1.04,10.35,0.23,-0.16,-0.12,7.67,-13.67,-45.48
159613,0.35,-2.00,11.18,-0.20,-0.67,-0.88,5.32,-16.85,-45.40
159752,1.60,1.15,13.16,-1.22,-1.80,-2.29,-3.49,-18.74,-43.07
159892,4.63,0.70,7.46,-2.09,-2.06,-1.20,-15.33,-17.92,-32.89
160032,6.68,-0.76,6.70,-1.57,-1.11,-0.91,-21.03,-17.14,-25.36
160171,7.59,-0.97,5.77,-0.65,-1.30,-0.96,-23.74,-19.31,-17.63
160311,8.22,0.28,3.32,-0.77,-1.08,-0.75,-25.12,-22.49,-10.80
160451,8.93,0.60,2.35,-0.42,-1.07,-0.44,-25.68,-25.49,-5.17
160596,9.26,0.10,0.99,-0.54,-0.83,-0.27,-25.53,-27.90,-0.51
160736,9.36,0.29,-0.39,-0.90,-0.58,0.01,-24.38,-29.52,2.85
160875,9.52,0.78,-1.39,-0.13,-0.60,-0.14,-23.94,-30.59,5.89
161015,9.69,0.86,-1.33,-0.42,-0.14,0.12,-23.17,-30.62,7.04
161155,9.67,0.40,-1.21,0.02,-0.09,0.07,-22.90,-30.56,6.56
161294,9.66,-0.01,-1.10,0.04,-0.04,0.06,-23.66,-29.93,7.88
161434,9.77,0.26,-0.75,-0.08,0.07,0.08,-23.56,-28.71,6.77
161574,9.73,-0.05,-0.65,-0.01,-0.04,-0.00,-24.86,-29.19,6.71
161718,9.67,-0.06,-0.80,-0.05,0.01,0.03,-24.71,-28.68,8.08
161858,9.77,0.01,-1.07,0.03,-0.09,0.02,-24.39,-28.92,6.71
161998,9.79,-0.02,-0.06,-0.04,0.13,0.05,-24.64,-28.35,5.73
162137,9.63,-0.11,-0.82,0.01,-0.03,0.01,-24.58,-27.87,5.88
162277,9.73,-0.18,-0.63,0.04,-0.06,0.02,-25.26,-28.44,5.95
162416,9.80,-0.12,-0.41,0.02,-0.02,-0.02,-25.24,-28.16,6.24
162556,9.68,-0.17,-0.53,0.03,-0.01,0.03,-25.11,-28.38,4.85
162696,9.74,0.08,-0.45,0.01,-0.04,-0.02,-25.45,-28.05,5.32
162835,9.77,-0.23,-0.28,0.01,-0.01,0.03,-25.64,-27.46,4.97
162981,9.72,-0.17,-0.40,0.02,-0.05,-0.01,-25.14,-27.67,5.64
163121,9.78,-0.13,-0.38,0.02,-0.04,0.00,-25.68,-27.64,6.08
163260,9.72,-0.22,-0.37,0.03,-0.02,0.00,-25.39,-28.21,4.98
163400,9.71,-0.26,-0.56,0.02,-0.01,-0.02,-24.74,-27.57,4.93
163540,9.76,-0.11,-0.33,-0.02,-0.04,0.00,-25.84,-27.68,5.33
163679,9.74,-0.19,-0.38,0.02,-0.05,-0.00,-25.77,-27.42,4.82
163819,9.77,-0.16,-0.33,0.00,-0.01,0.01,-25.93,-27.87,4.47
163958,9.70,-0.26,-0.39,0.03,-0.05,0.00,-25.31,-27.45,4.34
164103,9.67,-0.22,-0.44,0.01,-0.03,-0.01,-24.99,-27.20,5.64
164243,9.80,-0.13,0.04,0.03,-0.02,0.00,-25.68,-27.35,4.22
164382,9.72,-0.24,-0.37,0.01,0.01,0.01,-25.55,-27.02,4.66
164522,9.77,-0.27,-0.02,0.03,0.01,-0.01,-25.46,-27.95,4.46
164662,9.75,-0.18,0.09,0.01,-0.02,0.00,-25.52,-28.09,3.55
164801,9.73,-0.23,-0.06,0.02,-0.05,-0.01,-26.03,-28.30,3.76
164941,9.80,-0.20,0.05,0.00,-0.01,-0.02,-25.49,-27.64,3.90
165081,9.76,-0.31,0.04,0.01,-0.03,-0.04,-25.39,-27.61,3.46
165220,9.74,-0.08,0.16,-0.01,0.01,-0.06,-25.80,-27.87,3.64
165366,9.81,0.15,0.16,-0.00,-0.03,-0.01,-25.07,-28.79,2.09
165505,9.21,-0.50,-0.08,0.01,-0.02,-0.08,-24.92,-28.57,2.50
165645,7.67,0.08,0.21,0.02,0.37,-0.43,-23.65,-30.56,0.51
165785,8.23,1.87,1.76,0.12,0.68,-0.79,-22.96,-34.11,-3.11
165924,7.69,3.72,2.04,0.17,0.63,-0.66,-20.49,-38.10,-5.92
166064,6.18,1.30,2.23,0.80,1.30,-1.97,-13.81,-45.37,-9.16
166204,5.75,9.37,2.92,-0.02,1.49,-2.84,3.86,-54.59,-11.97
166343,-0.06,8.36,7.46,-0.02,2.02,-3.22,24.32,-55.48,-14.29
166489,-5.28,10.02,7.48,-0.37,0.97,-2.94,42.21,-48.70,-5.67
166628,-6.92,6.81,5.39,-0.78,0.84,-1.35,49.99,-42.34,-0.85
166768,-7.49,6.52,4.56,-0.12,0.51,-0.77,52.86,-36.99,2.29
166908,-8.23,4.96,4.36,-0.06,0.49,-1.01,54.05,-34.08,6.45
167047,-8.48,4.61,3.89,-0.04,0.29,-0.61,55.60,-30.12,8.99
167187,-9.01,3.76,2.74,-0.02,0.74,-0.48,56.11,-27.70,13.50
167327,-9.06,2.89,2.74,0.06,0.10,-0.19,56.62,-27.11,13.78
167466,-9.29,2.64,2.19,0.06,0.08,-0.10,56.74,-26.63,14.69
167606,-9.18,2.64,2.18,-0.00,-0.03,-0.01,56.30,-26.53,15.08
167751,-9.25,2.54,2.30,0.01,-0.04,-0.00,56.74,-26.38,13.59
167891,-9.30,2.45,2.16,-0.05,0.04,-0.01,56.71,-26.88,15.51
168031,-9.26,2.39,1.97,-0.00,-0.05,-0.06,56.58,-26.37,15.48
168170,-9.20,2.53,1.82,-0.02,-0.04,-0.02,56.47,-26.70,14.92
168316,-9.34,2.28,1.99,0.03,0.05,-0.00,56.11,-26.83,11.69
168456,-9.35,2.35,1.80,0.00,0.08,0.01,56.28,-26.91,15.42
168595,-9.32,2.19,1.70,-0.04,-0.01,0.02,55.55,-26.22,15.89
168735,-9.33,2.23,1.68,0.04,-0.03,0.01,55.86,-26.76,17.10
168875,-9.37,2.21,1.63,-0.01,-0.02,0.02,55.39,-27.52,16.44
169020,-9.35,2.39,1.61,0.03,-0.02,0.04,54.72,-27.43,16.81
169160,-9.32,2.51,1.79,-0.04,-0.02,0.01,55.00,-27.90,16.08
169299,-9.37,2.48,1.65,-0.04,-0.08,0.05,55.44,-27.26,15.65
169439,-9.32,2.45,1.57,0.02,-0.08,0.01,55.29,-27.81,15.11
169579,-9.31,2.42,1.79,-0.04,-0.02,0.01,54.72,-27.65,15.80
169718,-9.35,2.53,1.86,0.00,-0.06,0.02,54.62,-28.47,15.59
169858,-9.28,2.40,1.51,0.05,-0.11,0.04,55.33,-28.19,15.17
169998,-9.24,2.54,1.75,-0.03,-0.03,-0.01,55.35,-28.52,14.94
170143,-9.26,2.59,1.81,-0.00,-0.04,-0.00,55.88,-28.09,15.35
170283,-9.31,2.57,1.79,0.01,-0.06,0.02,56.01,-28.22,15.92
170422,-9.28,2.51,1.63,0.03,-0.04,-0.00,55.22,-28.11,14.47
170562,-9.23,2.66,1.89,0.00,-0.02,0.00,55.09,-28.72,14.92
170702,-9.29,2.56,1.71,0.03,-0.04,0.00,55.33,-28.28,15.48
170841,-9.23,2.67,1.80,-0.01,-0.04,-0.02,55.01,-28.76,14.73
170981,-9.24,2.69,1.79,-0.01,-0.04,-0.02,54.95,-28.09,15.13
171121,-9.20,2.72,1.94,0.00,-0.03,-0.01,54.36,-27.87,15.05
171260,-9.27,2.50,1.83,-0.01,-0.06,-0.00,54.91,-28.37,15.02
171420,-9.23,2.57,1.88,-0.00,-0.04,0.01,55.36,-28.92,14.85
171560,-9.27,2.53,1.85,-0.02,-0.02,0.00,54.24,-28.33,15.19
171700,-9.21,2.64,1.93,0.02,-0.06,0.03,54.43,-28.43,14.94
171840,-9.20,2.77,1.88,0.00,-0.05,0.02,54.49,-28.53,15.05
171980,-9.08,3.21,2.26,-0.27,0.03,0.12,54.66,-29.04,14.82
172120,-9.25,2.56,1.81,0.03,-0.11,0.12,53.87,-30.18,14.75
172259,-9.18,2.70,1.87,0.02,-0.03,-0.01,53.87,-30.28,15.46
172399,-9.16,2.88,2.03,0.00,-0.03,-0.05,53.60,-30.17,15.20
172544,-9.21,2.90,1.98,0.05,-0.04,-0.01,53.64,-29.86,14.54
172684,-9.15,2.83,1.90,-0.00,-0.04,0.02,54.31,-29.38,14.97
172824,-9.15,2.89,1.93,-0.00,-0.03,0.01,54.11,-29.14,15.57
172963,-9.15,2.93,1.85,-0.00,-0.05,0.04,53.79,-30.06,15.00
173103,-9.13,3.02,1.95,-0.01,-0.04,0.01,54.03,-29.44,14.85
173243,-9.12,3.13,2.01,0.00,-0.05,0.05,53.81,-29.77,15.90
173382,-9.10,3.13,1.97,-0.01,-0.07,0.13,54.00,-31.39,14.63
173522,-9.21,3.89,2.45,-0.54,-0.08,0.51,52.60,-32.61,12.80
173662,-8.85,5.48,4.71,-2.79,0.09,0.90,51.01,-38.29,9.75
173807,-9.26,6.48,6.12,-2.01,-1.09,2.12,44.99,-45.16,-4.38
173947,-6.89,5.09,6.44,-1.60,-1.26,2.01,36.76,-45.89,-18.27
174086,-4.30,5.43,7.12,-1.23,-1.17,1.45,29.41,-43.60,-27.77
174226,-1.90,0.45,8.64,-1.43,-0.92,1.14,22.39,-36.71,-36.88
174366,-0.23,0.79,9.36,-1.24,-0.75,0.32,16.53,-31.31,-41.98
174505,0.48,0.11,8.74,-0.52,-0.35,0.19,12.83,-26.94,-43.10
174645,0.74,-1.40,8.08,-0.37,-0.22,0.04,10.99,-23.37,-45.76
174785,0.91,-1.61,9.02,-0.44,-0.03,0.02,11.06,-20.59,-46.16
174930,0.90,-1.97,9.31,-0.09,0.02,-0.02,10.22,-19.69,-45.79
175070,0.86,-1.99,9.72,-0.01,-0.01,-0.05,11.28,-20.08,-46.65
175209,0.86,-1.94,9.74,-0.03,0.04,-0.03,11.77,-20.18,-46.26
175349,0.86,-2.00,9.79,-0.03,0.01,-0.05,11.96,-19.58,-47.00
175489,0.85,-1.97,9.72,0.02,-0.07,-0.01,11.66,-20.24,-46.83
175628,0.77,-2.05,9.69,-0.04,-0.01,-0.01,11.58,-19.66,-46.83
175768,0.77,-2.13,9.65,-0.05,-0.00,0.01,12.32,-19.73,-46.65
175908,0.65,-2.29,9.82,-0.07,0.07,0.07,12.42,-19.76,-46.70
176047,0.51,-2.45,9.63,0.01,-0.02,-0.03,13.07,-19.32,-45.79
176208,0.52,-2.10,9.91,0.00,-0.04,-0.05,13.52,-19.13,-46.92
176348,0.57,-2.55,9.41,-0.06,-0.06,0.01,12.06,-19.03,-46.48
176488,0.59,-2.63,9.67,-0.05,-0.07,-0.02,12.86,-17.52,-46.68
176627,0.66,-2.49,9.51,-0.01,-0.06,-0.00,12.28,-17.79,-46.76
176767,0.63,-2.62,9.47,0.01,-0.07,0.03,12.60,-17.61,-47.35
176907,0.61,-2.64,9.64,0.05,-0.03,0.01,12.28,-17.80,-47.53
177046,0.56,-2.53,9.62,0.01,-0.00,-0.01,12.73,-18.15,-47.47
177186,0.63,-2.38,9.60,0.01,-0.04,0.01,12.29,-18.28,-47.08
177332,0.47,-2.58,9.48,0.08,-0.01,0.01,12.73,-18.33,-47.65
177471,0.77,-2.18,9.83,0.04,-0.01,-0.02,12.39,-18.91,-47.97
177611,0.63,-2.34,9.72,0.07,-0.07,0.01,11.49,-18.85,-47.34
177750,0.74,-2.16,9.54,0.04,-0.07,0.04,12.13,-19.09,-47.56
177890,0.52,-2.22,9.61,0.02,-0.05,0.04,12.93,-18.85,-47.81
178030,0.54,-2.26,9.77,0.00,-0.04,0.04,12.47,-19.35,-48.54
178169,0.62,-2.41,9.47,-0.01,-0.06,-0.01,12.19,-18.74,-47.90
178309,0.59,-2.32,9.72,0.00,-0.03,0.00,13.02,-18.59,-47.38
178449,0.60,-2.30,9.52,0.02,-0.05,0.00,12.66,-18.59,-47.85
178584,0.53,-2.38,9.74,0.02,-0.02,-0.00,12.95,-19.22,-48.58
178724,0.53,-2.27,9.65,0.00,-0.05,-0.04,12.79,-18.93,-48.06
178864,0.56,-2.15,9.51,0.01,-0.09,-0.02,12.66,-18.99,-48.11
179003,0.60,-2.38,9.57,0.03,-0.04,-0.00,12.48,-18.46,-47.90
179143,0.64,-2.29,9.77,0.02,-0.04,-0.00,13.05,-18.78,-48.09
179283,0.57,-2.19,9.57,0.02,-0.05,0.03,12.54,-18.91,-48.30
179422,0.52,-2.28,9.57,0.02,-0.07,0.01,12.82,-18.59,-48.76
179562,0.50,-2.35,9.68,0.02,-0.04,-0.00,12.38,-18.31,-47.87
179708,0.56,-2.25,9.80,-0.00,-0.05,-0.00,12.25,-19.06,-47.31
179847,0.61,-2.29,9.44,0.00,-0.05,0.01,11.88,-18.49,-46.95
179987,0.55,-2.28,9.72,0.03,-0.06,-0.00,12.54,-18.43,-47.16
180126,0.63,-2.22,9.59,0.05,-0.06,0.01,12.00,-18.52,-47.46
180266,0.63,-2.20,9.69,0.02,-0.05,0.00,12.20,-18.37,-47.56
180406,0.62,-2.18,9.65,0.16,-0.08,-0.01,11.88,-19.47,-48.36
180545,0.65,-2.01,9.81,0.09,-0.06,-0.02,12.25,-19.47,-47.57
180685,0.64,-1.93,9.70,0.13,-0.07,-0.02,11.77,-20.18,-47.88
180831,0.63,-1.82,9.65,0.08,-0.05,-0.00,11.75,-20.72,-47.19
180970,0.61,-1.59,9.76,0.16,-0.04,-0.02,12.17,-20.80,-47.56
181110,0.68,-1.43,9.82,0.17,-0.06,-0.03,11.37,-23.08,-46.39
181250,0.73,-1.31,9.88,0.07,-0.08,-0.01,11.59,-22.65,-46.87
181389,0.70,-1.45,9.85,0.02,-0.07,-0.02,11.59,-23.02,-46.42
181529,0.65,-4.51,9.37,0.30,-0.10,-0.33,11.50,-23.95,-46.92
181668,0.18,-1.51,9.91,0.37,-0.14,-1.31,12.36,-26.44,-47.09
181808,0.20,-2.16,10.58,-0.19,0.09,-2.02,14.00,-28.49,-46.67
181948,-0.12,-0.02,9.84,0.26,-0.12,-2.16,16.76,-29.14,-46.74
182093,0.87,0.94,9.59,0.11,-0.08,-1.61,19.53,-32.01,-46.87
182233,0.93,0.90,10.19,-0.10,0.00,-1.43,22.57,-32.65,-47.41
182373,0.70,1.27,8.99,0.25,-0.14,-1.24,24.88,-32.18,-47.30
182512,0.82,1.16,9.62,0.24,0.08,-0.90,27.32,-30.88,-47.00
182652,0.97,1.70,9.91,0.06,-0.04,-0.42,28.79,-30.53,-47.54
182791,0.92,1.05,9.81,0.05,-0.08,-0.07,29.07,-31.28,-47.40
182931,0.87,0.92,10.00,0.00,-0.00,-0.08,29.67,-30.52,-45.64
183071,0.81,0.85,9.76,0.09,-0.12,0.01,29.30,-31.67,-46.58
183216,0.88,0.98,9.92,-0.12,-0.04,-0.01,29.80,-31.19,-45.63
183356,0.84,0.88,9.66,-0.02,-0.07,0.00,29.73,-31.01,-46.38
183496,0.93,0.98,9.91,-0.05,-0.06,-0.03,29.89,-31.18,-45.91
183635,0.90,0.77,10.00,-0.04,-0.07,-0.01,29.36,-30.34,-46.78
183775,0.98,0.60,9.94,-0.07,-0.09,0.01,29.14,-29.93,-46.32
183915,1.00,0.66,9.70,-0.03,-0.03,-0.00,28.94,-29.58,-46.43
184054,1.00,0.58,10.06,0.02,-0.03,-0.01,28.82,-29.92,-46.62
184194,0.94,0.55,9.89,-0.01,-0.06,0.03,28.46,-30.05,-46.43
184333,1.02,0.41,9.78,-0.02,-0.05,0.02,28.73,-29.44,-46.29
184479,0.92,0.38,9.85,0.03,-0.03,-0.01,28.72,-29.42,-46.96
184619,0.96,0.36,9.96,0.03,-0.05,-0.04,28.31,-29.61,-47.12
184758,0.95,0.55,9.82,-0.00,-0.04,-0.05,28.40,-29.35,-46.58
184898,0.96,0.72,9.74,0.04,-0.05,-0.03,28.92,-29.67,-47.53
185038,0.91,0.48,9.77,0.02,-0.04,-0.02,28.11,-29.79,-47.53
185177,0.94,0.61,9.87,0.02,-0.04,-0.00,28.52,-29.13,-46.59
185317,0.98,0.54,9.82,0.01,-0.06,0.01,28.21,-29.82,-46.73
185457,0.99,0.63,9.78,0.02,-0.07,0.01,27.83,-29.52,-47.57
185602,0.98,0.41,10.05,0.01,-0.04,-0.01,27.71,-29.63,-47.27
185742,0.93,0.33,9.82,0.03,-0.04,-0.00,28.11,-29.30,-47.60
185881,0.97,0.39,9.99,0.01,-0.04,-0.01,27.92,-29.93,-47.33
186021,0.94,0.51,9.80,0.02,-0.05,-0.02,27.90,-29.23,-48.04
186161,0.96,0.55,9.86,0.02,-0.06,-0.01,27.92,-29.38,-47.62
186300,0.95,0.51,9.77,0.01,-0.04,0.00,27.92,-30.17,-47.30
186440,0.97,0.56,9.82,0.02,-0.03,-0.01,28.37,-29.23,-47.41
186580,0.96,0.55,9.85,0.00,-0.02,0.00,27.96,-29.54,-47.03
186719,0.97,0.51,9.88,0.01,-0.04,-0.01,27.76,-29.09,-47.50
186865,0.93,0.49,9.85,0.02,-0.04,-0.01,27.55,-29.41,-46.80
187004,0.94,0.49,9.76,0.03,-0.07,-0.01,27.42,-29.86,-47.30
187144,0.99,0.64,10.01,0.01,-0.05,0.02,27.99,-29.70,-47.65
187284,0.98,0.57,9.96,0.05,-0.01,-0.00,27.46,-29.38,-46.99
187423,0.95,0.56,9.83,0.02,-0.06,-0.01,27.39,-29.45,-47.19
187563,0.98,0.56,9.81,0.00,-0.04,-0.02,27.84,-29.92,-46.58
187703,0.91,0.42,9.66,0.01,-0.05,0.00,26.88,-29.44,-45.44
187842,0.98,0.52,10.02,-0.01,-0.04,0.01,27.74,-29.39,-46.02
187988,0.96,0.56,9.91,-0.02,-0.04,-0.00,27.95,-29.35,-47.62
188127,0.94,0.37,9.87,0.01,-0.05,-0.02,28.15,-29.20,-46.77
188273,0.97,0.52,9.98,-0.02,-0.04,-0.00,27.95,-29.23,-47.02
188413,0.97,0.47,9.89,0.01,-0.04,-0.00,27.89,-28.76,-46.42
188552,0.93,0.47,9.74,0.00,-0.05,0.01,28.05,-29.20,-47.59
188692,0.97,0.50,9.90,0.01,-0.04,-0.01,28.27,-29.90,-46.08
188832,0.90,0.40,9.85,0.02,-0.05,-0.01,28.44,-29.49,-46.76
188971,0.91,0.41,9.89,0.03,-0.05,-0.01,28.21,-29.92,-47.14
189111,0.91,0.46,9.77,0.03,-0.06,-0.03,27.78,-26.43,-47.50
189256,0.93,0.47,10.03,0.02,-0.05,-0.01,28.15,-29.35,-47.27
189396,0.92,0.62,9.73,0.02,-0.08,-0.04,28.57,-28.91,-48.09
189536,0.94,0.55,9.71,0.01,-0.04,-0.02,27.89,-30.18,-47.54
189675,0.93,0.48,9.84,-0.01,-0.07,-0.02,27.93,-29.29,-47.56
189815,0.95,0.46,9.78,0.02,-0.06,0.00,27.48,-28.79,-47.79
189955,0.95,0.51,9.83,0.04,-0.05,-0.02,27.51,-29.45,-48.33
190094,0.98,0.52,9.88,-0.00,-0.06,0.01,27.43,-29.67,-47.98
190234,0.98,0.48,9.87,0.02,-0.06,-0.01,27.46,-29.14,-47.19
190379,1.00,0.62,9.78,0.01,-0.06,-0.01,27.95,-29.25,-47.69
190519,1.05,0.54,9.97,0.03,-0.06,-0.02,27.46,-29.61,-47.35
190659,1.00,0.49,9.77,0.03,-0.05,-0.01,27.04,-30.06,-48.01
190798,1.01,0.56,9.77,0.01,-0.06,-0.00,27.24,-29.45,-47.34
190938,1.03,0.49,9.89,-0.00,-0.05,-0.00,27.48,-29.33,-46.89
191078,1.01,0.44,9.94,0.01,-0.02,-0.00,27.46,-29.44,-47.16
191217,0.99,0.43,9.89,0.02,-0.05,-0.00,27.54,-29.64,-47.87
191357,0.98,0.49,9.81,0.02,-0.05,-0.01,27.14,-28.52,-48.45
191497,1.04,0.40,9.95,0.05,-0.07,-0.01,27.24,-29.57,-47.60
191642,1.02,0.40,9.86,0.02,-0.03,0.00,27.29,-29.42,-47.11
191782,1.00,0.46,9.80,0.03,-0.04,-0.01,27.32,-29.41,-47.71
191921,1.00,0.51,9.79,0.02,-0.05,-0.03,27.45,-29.76,-47.02
192061,0.98,0.54,9.69,0.04,-0.06,-0.03,28.18,-29.14,-47.90
192201,1.00,0.52,9.93,0.03,-0.04,-0.02,28.25,-29.79,-47.16
192340,1.01,0.56,9.80,0.03,-0.05,-0.00,28.79,-29.64,-46.97
192480,1.03,0.74,9.88,0.00,-0.05,-0.01,28.06,-29.26,-46.95
192620,0.98,0.62,9.73,0.01,-0.03,-0.00,28.00,-29.95,-47.46
192765,0.99,0.51,9.85,0.02,-0.04,-0.00,28.09,-29.28,-46.46
192905,0.98,0.55,9.92,0.01,-0.03,-0.01,27.57,-30.05,-47.92
193044,0.98,0.56,9.97,-0.01,-0.04,-0.02,28.46,-29.86,-46.71
193184,0.98,0.56,9.86,0.01,-0.06,-0.02,28.15,-29.68,-47.03
193324,0.98,0.53,9.89,0.01,-0.02,-0.01,27.65,-29.52,-47.33
193463,0.97,0.63,9.79,0.02,-0.04,0.01,28.84,-29.82,-47.62
193603,0.95,0.65,9.77,0.01,-0.04,0.01,28.16,-29.44,-46.92
193743,0.97,0.33,10.02,0.01,-0.05,0.01,27.36,-29.71,-47.18
193882,0.97,0.53,9.88,0.01,-0.04,-0.02,28.19,-29.67,-47.41
194028,0.99,0.57,9.93,0.01,-0.05,0.02,27.86,-29.95,-46.65
194167,1.03,0.47,9.91,-0.01,-0.05,0.00,28.19,-29.87,-47.22
194307,1.00,0.44,9.86,0.03,-0.03,-0.02,27.45,-29.36,-46.83
194447,1.03,0.35,10.07,-0.09,-0.05,0.13,28.38,-29.92,-47.22
194586,1.03,0.13,10.04,0.01,-0.06,-0.03,28.34,-28.66,-47.71
194726,1.02,0.22,9.77,0.04,-0.03,-0.03,27.29,-29.44,-48.35
194866,0.99,0.40,9.73,0.04,-0.04,-0.01,27.68,-28.40,-49.14
195005,1.07,0.40,10.00,0.02,-0.05,-0.02,27.46,-29.16,-47.90
195166,1.01,0.59,9.65,-0.01,-0.03,-0.00,27.61,-28.84,-49.08
195306,0.99,0.37,10.22,0.06,-0.03,-0.01,27.70,-29.25,-48.52
195446,0.97,0.53,9.68,-0.00,-0.07,-0.01,26.64,-29.68,-48.35
195585,0.98,0.44,9.72,-0.01,-0.03,-0.02,26.81,-29.51,-48.98
195725,0.98,0.37,9.83,0.00,-0.02,0.01,27.39,-29.33,-47.95
195865,0.97,0.41,9.91,0.04,-0.05,0.02,27.71,-28.98,-48.67
196004,0.98,0.46,9.85,0.03,-0.08,0.03,27.21,-29.04,-49.01
196144,1.08,0.78,10.02,0.04,-0.08,0.07,26.62,-29.68,-48.16
196284,1.21,0.88,10.41,-0.14,-0.22,0.61,25.99,-29.51,-47.95
196429,1.05,2.13,10.06,-0.26,-0.52,1.68,22.07,-28.30,-49.75
196569,0.57,1.22,9.69,-0.23,-0.49,2.30,16.52,-25.27,-48.10
196708,-0.03,0.15,9.95,0.03,-0.22,3.07,12.86,-22.55,-47.60
196848,-1.13,-1.71,9.22,-0.03,-0.14,3.29,10.70,-18.53,-47.78
196988,-2.01,-3.42,9.78,0.66,-0.32,3.06,11.27,-15.99,-47.38
197127,-1.89,-2.90,9.88,-0.28,-0.05,2.40,13.62,-12.45,-48.09
197267,-1.87,-2.49,10.22,-0.00,-0.34,1.91,14.73,-11.68,-47.03
197407,-1.77,-1.93,10.03,-0.38,-0.29,1.86,14.43,-11.05,-46.57
197552,-1.65,-2.63,8.67,-0.37,-0.68,2.35,12.55,-5.64,-45.22
197692,-0.83,-3.36,10.15,0.27,0.22,0.18,13.12,-6.78,-44.52
197832,-0.53,-2.01,9.45,0.00,-0.15,0.11,12.98,-7.57,-44.93
197971,-0.33,-1.42,9.66,-0.00,-0.13,-0.00,13.42,-7.61,-45.32
198111,-0.45,-2.15,9.52,0.06,-0.09,0.04,12.53,-7.51,-45.06
198250,-0.48,-1.84,9.53,0.10,-0.08,0.03,13.15,-8.05,-45.48
198390,-0.38,-2.07,9.99,0.06,-0.08,0.05,12.34,-8.29,-43.98
198530,-0.50,-2.39,9.71,0.07,-0.04,0.08,11.65,-8.07,-45.62
198669,-0.47,-2.32,10.00,0.03,-0.06,0.13,12.70,-7.89,-45.59
198815,-0.46,-1.89,9.64,0.02,-0.03,0.15,12.36,-8.30,-45.64
198955,-0.53,-2.13,9.98,-0.05,-0.04,0.10,13.58,-8.33,-44.83
199094,-0.55,-1.96,9.86,0.13,-0.06,0.01,13.05,-8.78,-47.30
199234,-0.41,-1.69,9.69,0.01,-0.05,-0.02,13.23,-8.24,-45.95
199374,-0.36,-1.76,9.89,0.04,-0.06,-0.01,12.57,-7.61,-46.10
199513,-0.34,-1.68,9.88,0.08,-0.06,0.03,13.36,-8.45,-45.72
199653,-0.40,-1.70,9.77,0.05,-0.07,0.01,12.89,-7.91,-46.89
199792,-0.42,-1.70,9.82,0.06,-0.05,0.03,12.79,-9.31,-46.08
199938,-0.42,-1.63,9.75,0.04,-0.05,0.00,12.69,-8.01,-46.80
200078,-0.43,-1.69,9.77,-0.02,-0.05,-0.02,12.54,-8.61,-47.37
200217,-0.35,-1.61,9.89,-0.02,-0.05,-0.01,12.32,-8.51,-46.24
200357,-0.35,-1.56,9.63,-0.00,-0.05,0.00,11.79,-8.70,-46.62
200497,-0.37,-1.60,9.79,0.02,-0.04,-0.00,12.82,-8.42,-47.34
200636,-0.40,-1.59,9.66,0.00,-0.04,0.01,13.33,-9.12,-46.61
200776,-0.33,-1.56,9.77,0.06,-0.05,0.01,12.63,-8.64,-46.02
200916,-0.34,-1.50,9.80,0.09,-0.06,-0.00,13.27,-9.76,-45.89
201055,-0.23,-0.97,9.87,0.41,-0.12,-0.03,12.60,-11.91,-46.16
201201,-0.26,-0.35,9.69,0.96,-0.26,-0.35,11.09,-17.45,-47.43
201340,0.28,1.65,9.97,1.26,-0.53,-0.63,9.49,-25.84,-47.49
201480,0.89,3.72,8.62,1.84,-0.64,-0.63,6.42,-36.70,-42.98
201620,1.47,6.72,7.97,1.84,-0.70,-0.56,6.28,-47.05,-34.93
201759,1.47,8.40,4.88,2.64,-0.94,-0.55,6.28,-56.66,-22.27
201899,1.42,9.76,2.72,1.34,-0.55,-0.40,7.56,-60.64,-11.37
202039,0.90,9.99,0.25,1.46,-0.46,-0.33,9.92,-61.60,-0.60
202178,0.57,9.70,-2.14,1.88,-0.59,-0.27,12.48,-58.45,13.33
202324,0.11,8.63,-4.09,1.00,-0.40,-0.04,15.70,-54.90,20.84
202463,0.03,8.71,-5.41,0.77,-0.24,-0.03,17.32,-50.61,25.83
202603,-0.17,8.16,-5.75,0.41,-0.14,0.01,18.20,-48.83,29.73
202743,-0.07,8.37,-5.91,-0.13,-0.03,0.01,18.01,-47.60,29.35
202882,-0.19,7.93,-5.76,-0.21,-0.07,0.05,18.15,-49.46,27.93
203022,-0.17,8.06,-5.69,-0.17,-0.04,0.01,17.89,-50.26,27.20
203162,-0.23,9.30,-4.74,-0.85,-0.01,0.08,18.33,-54.52,24.99
203301,0.32,9.88,-3.45,-1.70,0.18,0.22,16.84,-59.11,16.33
203441,0.59,9.72,0.70,-3.85,0.75,0.50,14.38,-63.83,-6.12
203592,0.86,6.89,6.16,-3.33,0.53,0.65,11.36,-53.99,-32.90
203732,0.56,4.22,8.65,-3.63,0.49,0.61,10.71,-36.63,-46.33
203872,0.27,1.96,9.86,-2.63,0.15,0.64,11.27,-19.06,-50.67
204011,-0.15,-3.03,10.55,-0.25,0.05,0.40,12.00,-13.97,-49.85
204151,0.10,-1.56,9.08,-0.06,-0.18,-0.12,11.18,-12.76,-48.49
204291,0.27,-1.36,9.53,0.07,0.00,0.15,10.87,-12.74,-49.36
204430,-0.02,-1.89,9.96,0.06,-0.10,0.04,10.96,-12.76,-48.76
204570,0.17,-1.16,9.68,0.03,-0.02,-0.07,10.67,-12.76,-48.98
204715,0.35,-1.00,10.02,0.09,-0.06,-0.03,10.57,-13.75,-48.38
204855,0.24,-1.08,9.98,0.05,-0.07,0.02,10.51,-13.93,-47.97
204995,0.37,-1.36,9.67,0.07,-0.07,-0.04,9.62,-14.47,-47.94
205145,0.42,-1.27,9.89,0.01,-0.04,0.03,9.35,-14.09,-46.07
205294,0.29,-0.64,10.19,0.07,0.05,0.01,9.30,-14.89,-46.05
205434,0.35,-1.15,9.98,0.05,-0.17,-0.08,9.15,-15.43,-46.42
205574,0.53,-0.89,9.78,-0.01,-0.09,-0.03,8.49,-15.01,-45.92
205713,0.51,-1.09,9.84,0.08,-0.02,-0.03,9.05,-15.90,-47.69
205853,-0.01,-1.12,9.32,0.17,-0.01,-0.15,9.56,-16.78,-46.38
205999,-0.46,-1.20,8.85,0.91,0.10,-0.97,10.16,-22.80,-46.96
206138,-0.66,1.02,8.31,1.25,-0.82,-2.16,12.28,-33.18,-43.70
206278,-1.30,1.61,6.22,1.32,-1.06,-2.55,17.73,-42.55,-34.48
206417,-3.78,9.86,5.83,1.81,0.17,-3.26,24.90,-44.17,-21.63
206557,-4.36,9.03,2.80,4.10,-0.34,-2.73,29.57,-47.52,-7.19
206697,-6.55,9.44,2.86,2.00,-0.73,-1.74,36.20,-45.81,2.16
206836,-8.19,6.44,2.57,0.92,-0.36,-1.54,41.48,-43.50,7.31
206976,-8.39,7.06,0.78,0.55,-0.43,-0.91,46.27,-39.87,10.14
207122,-8.27,4.50,2.48,0.63,-0.37,-0.65,48.44,-39.07,10.99
207261,-8.46,4.89,2.25,-0.25,0.14,-0.58,49.34,-37.15,12.48
207401,-8.69,4.13,1.81,-0.20,0.12,-0.22,50.38,-36.95,14.79
207541,-9.20,3.59,2.13,-0.11,0.06,-0.09,51.37,-36.76,14.75
207680,-8.94,3.42,2.18,0.07,-0.11,0.09,50.69,-36.52,15.90
207820,-8.58,3.33,1.89,-0.22,0.05,-0.05,50.23,-37.20,15.62
207959,-8.94,2.91,2.06,-0.59,0.10,0.05,50.28,-37.75,14.97
208099,-8.83,3.66,2.57,0.34,-0.34,0.09,50.95,-38.60,14.57
208239,-8.73,3.56,2.38,0.21,-0.34,0.29,50.23,-38.70,13.45
208384,-8.78,3.67,1.69,0.26,-0.32,0.19,50.18,-39.05,12.04
208524,-8.52,3.95,2.00,0.46,-0.07,0.02,49.71,-39.27,12.53
208664,-8.68,3.72,1.96,0.31,0.10,-0.03,49.94,-38.29,14.16
208803,-8.53,4.77,2.04,0.94,-0.18,-0.01,49.63,-36.63,16.66
208943,-8.52,5.06,1.19,1.59,-0.48,0.02,50.64,-32.20,19.04
209083,-8.19,4.75,0.67,1.53,-0.45,0.22,51.26,-29.00,17.61
209222,-8.41,5.06,0.58,1.36,-0.39,-0.02,52.21,-26.16,19.20
209362,-8.31,5.97,-0.07,1.79,-0.37,-0.00,53.26,-21.32,18.42
209507,-8.35,4.29,-1.26,1.50,-0.48,-0.21,54.79,-16.00,15.76
209647,-8.43,4.42,-1.82,1.11,-0.29,-0.10,55.12,-11.90,14.06
209787,-8.59,4.34,-2.30,1.04,-0.25,-0.05,54.79,-9.53,12.48
209926,-8.72,3.54,-2.81,1.49,-0.41,0.13,55.57,-8.42,9.05
210066,-8.87,3.67,-3.06,1.30,-0.38,-0.05,56.26,-6.94,4.09
210206,-8.82,3.43,-3.03,0.81,-0.22,-0.07,56.31,-5.93,0.15
210345,-8.96,2.98,-2.82,-0.19,-0.00,0.03,55.92,-5.74,1.24
210485,-8.81,3.49,-3.05,-0.67,0.07,0.06,56.07,-6.37,1.68
210625,-8.86,2.83,-2.70,-1.91,0.52,0.06,56.46,-8.46,6.75
210770,-8.82,5.00,-1.99,-3.92,0.65,-0.10,54.98,-13.94,13.02
210910,-8.71,3.78,0.72,-3.74,0.23,-0.26,54.49,-23.93,15.96
211049,-8.85,3.54,1.51,-1.82,0.12,-0.11,53.81,-30.06,13.83
211189,-9.00,3.06,2.92,-3.17,0.39,0.06,53.68,-35.41,10.77
211329,-9.24,1.36,2.92,-3.26,0.38,0.39,52.69,-41.16,4.76
211468,-9.28,0.49,3.20,-1.77,0.35,0.13,51.42,-43.39,-2.44
211608,-9.47,-0.08,2.75,0.35,-0.04,0.04,50.66,-43.35,-3.01
211748,-9.29,0.79,2.72,0.00,0.02,-0.02,50.92,-43.17,-1.74
211887,-9.39,0.79,2.36,0.24,0.07,0.03,50.64,-43.48,0.06
212033,-9.41,0.71,2.88,0.13,0.08,0.03,50.82,-43.48,1.36
212172,-9.43,1.04,2.54,0.07,0.02,-0.01,50.88,-43.77,2.02
212312,-9.50,0.91,2.32,0.00,-0.03,0.01,50.76,-43.98,3.01
212452,-9.61,1.13,2.32,-0.00,-0.03,0.03,50.61,-43.83,2.40
212591,-9.39,0.85,2.37,-0.00,-0.13,0.04,50.07,-43.79,3.61
212731,-9.39,0.99,2.15,-0.03,-0.08,0.00,50.37,-43.93,2.28
212871,-9.40,1.24,2.30,-0.02,-0.03,0.03,50.72,-43.77,2.48
213010,-9.48,1.14,2.44,-0.00,-0.09,0.02,50.12,-43.60,2.59
213150,-9.41,1.16,2.80,-0.02,-0.14,0.01,50.70,-43.79,1.14
213295,-9.31,1.53,2.83,-0.05,-0.18,0.08,49.82,-43.96,0.85
213435,-9.27,1.24,3.20,-0.09,-0.24,0.12,48.89,-43.85,-0.35
213575,-9.21,1.13,3.46,-0.10,-0.40,0.13,48.52,-43.72,-2.47
213714,-9.00,2.01,4.56,0.12,-0.48,0.07,48.16,-43.03,-4.44
213854,-8.75,2.34,4.96,-0.15,-0.64,0.34,47.82,-42.05,-7.09
213994,-8.67,2.89,5.80,-0.55,-0.93,0.82,44.99,-43.01,-12.23
214133,-7.53,2.47,6.56,-0.51,-0.95,0.84,40.16,-41.93,-18.04
214273,-6.21,2.54,7.39,-0.62,-0.86,0.83,37.66,-39.99,-21.66
214434,-5.48,2.01,7.59,-0.47,-0.75,0.88,33.15,-37.88,-28.35
214574,-4.14,1.66,9.65,-0.70,-0.80,0.92,30.66,-35.90,-34.33
214713,-2.03,1.72,8.73,-0.68,-1.04,0.75,25.27,-32.36,-39.21
214853,-0.97,0.09,8.69,-0.82,-0.53,0.48,19.91,-28.98,-42.52
214993,-0.50,0.07,10.21,-0.71,-0.37,0.13,16.33,-26.79,-45.10
215132,0.24,-0.23,7.10,-0.44,-0.20,0.01,13.62,-24.06,-46.42
215272,-0.01,-0.93,9.77,0.16,0.08,0.04,14.44,-23.56,-46.92
215412,0.16,-1.25,9.51,0.03,-0.12,-0.01,13.80,-23.57,-47.35
215556,0.08,-0.46,10.35,-0.01,-0.01,-0.06,14.86,-24.25,-46.20
215696,0.04,-0.66,9.92,-0.13,0.03,-0.03,14.21,-24.39,-44.97
215835,-0.10,-0.98,9.98,-0.11,-0.01,-0.01,14.67,-23.53,-46.07
215975,-0.27,-0.97,9.63,-0.01,0.02,-0.01,15.61,-22.43,-45.62
216115,-0.19,-1.08,10.16,-0.04,0.03,-0.05,15.61,-22.87,-47.40
216254,-0.10,-0.93,9.72,0.00,-0.08,-0.02,15.23,-21.60,-46.55
216394,-0.14,-1.00,10.12,0.01,0.02,0.05,15.77,-21.84,-45.98
216534,-0.13,-1.06,9.11,0.08,0.01,0.08,14.72,-22.81,-46.27
216673,-0.58,-1.24,10.43,0.07,0.00,0.04,15.48,-22.81,-45.92
216819,-0.37,-1.03,9.74,0.00,-0.12,-0.01,14.94,-22.43,-46.38
216958,-0.22,-0.93,9.68,0.01,-0.06,-0.02,14.82,-21.59,-45.19
217098,-0.22,-0.91,9.98,0.06,0.00,-0.00,14.72,-22.57,-45.60
217238,-0.19,-0.87,10.01,0.06,-0.07,0.01,15.21,-22.92,-45.76
217377,-0.25,-0.88,9.82,-0.00,-0.07,0.02,14.43,-23.46,-44.62
217517,-0.18,-0.79,10.03,0.02,-0.03,-0.01,15.23,-22.84,-46.21
217657,-0.17,-0.87,10.08,0.04,-0.06,0.02,14.18,-23.00,-45.37
217796,-0.13,-0.86,10.04,0.17,-0.12,0.02,14.29,-23.37,-45.25
217942,0.12,0.08,10.19,0.28,-0.23,0.02,13.72,-25.59,-45.50
218082,1.92,0.28,10.88,0.45,-5.00,0.48,-7.59,-28.56,-34.76
218221,5.86,1.83,-2.83,0.22,0.07,-0.55,-19.44,-28.98,-22.33
218361,-0.51,3.30,10.63,-0.20,0.77,-0.96,11.91,-36.29,-41.39
218500,-0.54,2.87,8.65,-0.24,0.02,0.06,16.46,-36.45,-42.41
218640,-0.47,2.33,11.23,0.08,-0.09,0.02,17.99,-36.76,-41.13
218780,-0.72,1.96,9.16,-0.18,0.11,-0.08,17.38,-35.84,-42.17
218919,-0.97,2.51,9.72,0.03,-0.03,-0.00,17.80,-35.52,-42.79
219065,-1.06,2.49,9.83,0.14,0.02,0.02,17.79,-36.28,-43.19
219205,-0.91,2.20,9.12,-0.01,-0.11,-0.03,17.85,-36.89,-40.91
219344,-0.78,2.46,9.49,0.03,-0.06,-0.01,17.61,-36.17,-42.81
219484,-0.84,2.39,9.24,-0.06,0.07,-0.03,17.44,-35.90,-42.40
219624,-0.92,1.89,9.67,-0.03,-0.02,0.09,17.83,-35.76,-42.14
219763,-0.93,1.91,9.80,-0.01,-0.04,0.04,18.11,-35.97,-41.39
219903,-1.00,2.19,10.04,0.00,-0.07,-0.03,18.02,-36.17,-42.52
220042,-0.70,1.88,9.59,-0.04,-0.13,0.05,17.93,-35.50,-42.52
220182,-0.60,2.53,9.85,-0.15,-0.45,-0.01,16.11,-36.01,-43.51
220328,-0.48,2.16,11.18,-0.20,-0.41,0.01,14.41,-35.14,-42.02
220467,0.14,2.29,11.52,-0.30,-2.05,0.44,6.93,-32.93,-42.15
220607,2.76,0.89,8.16,-0.64,-2.38,0.50,-6.02,-28.69,-37.47
220747,5.70,-0.75,6.69,-0.61,-2.45,0.51,-18.52,-22.42,-26.29
220886,7.87,-1.85,3.37,-0.66,-1.66,0.19,-24.64,-19.57,-14.31
221026,8.44,-2.28,2.50,-0.56,-1.48,0.16,-26.10,-18.04,-5.89
221166,8.85,-2.27,-0.16,-0.41,-1.03,0.00,-26.48,-17.54,1.14
221305,9.18,-2.88,-1.76,-0.20,-0.25,-0.06,-25.65,-16.78,5.23
221451,9.81,-2.13,0.26,-0.19,0.01,-0.15,-25.45,-18.87,4.84
221590,9.63,-2.02,0.08,-0.07,0.02,-0.10,-25.96,-19.31,5.12
221730,9.50,-1.73,-0.20,0.05,-0.04,-0.00,-25.68,-19.01,4.14
221870,9.57,-1.96,0.24,0.05,0.02,-0.02,-26.29,-19.25,3.92
222015,9.55,-1.97,0.36,0.05,-0.07,-0.01,-25.90,-19.57,3.11
222155,9.62,-1.87,0.26,0.04,-0.09,-0.05,-25.97,-19.32,3.49
222294,9.63,-1.86,0.29,-0.01,-0.06,-0.01,-25.65,-19.58,3.58
222434,9.69,-1.84,-0.07,-0.01,-0.05,-0.04,-26.24,-20.42,4.94
222574,9.61,-1.74,-0.01,-0.03,-0.20,-0.01,-25.45,-20.43,5.31
222719,9.67,-1.82,0.13,-0.05,-0.17,0.05,-25.10,-19.76,6.43
222859,9.57,-1.95,-0.48,0.06,-0.02,-0.01,-25.11,-20.18,7.25
222999,9.61,-1.82,-0.22,0.03,-0.15,0.02,-25.31,-19.85,6.30
223138,9.61,-1.90,-0.47,0.01,-0.05,0.01,-24.83,-20.23,7.86
223278,9.59,-1.86,-0.58,0.05,-0.08,-0.01,-25.72,-19.80,8.65
223417,9.52,-1.85,-0.64,0.03,-0.17,0.01,-25.26,-19.77,7.82
223557,9.61,-2.00,-0.71,-0.01,-0.24,-0.01,-25.05,-20.29,9.24
223697,9.50,-2.00,-1.42,0.28,-0.59,-0.00,-24.23,-19.79,12.23
223842,9.38,-1.73,-1.40,0.15,-0.74,0.05,-22.89,-19.12,16.18
223982,8.39,-2.69,-4.25,0.39,-1.54,0.42,-18.82,-18.01,22.70
224122,6.91,-2.91,-5.95,-0.29,-2.22,0.61,-10.07,-17.01,31.80
224261,4.90,-3.68,-8.36,-0.41,-1.46,0.07,0.15,-16.71,37.85
224401,3.87,-3.60,-9.54,-0.01,-0.38,0.09,4.60,-18.01,40.59
224541,4.93,-2.69,-7.00,0.05,0.78,-0.26,2.81,-17.55,40.32
224680,5.73,-2.27,-8.37,-0.07,0.67,-0.05,-2.12,-17.25,37.45
224820,6.89,-3.07,-6.71,-0.24,1.15,-0.18,-9.62,-17.74,31.72
224965,7.46,-1.91,-5.72,0.25,2.84,-0.70,-19.09,-19.44,22.46
225105,9.47,-1.13,0.49,0.16,2.14,-0.44,-24.95,-22.23,7.60
225245,9.81,-1.07,0.78,0.15,0.48,-0.24,-25.77,-23.18,3.33
225384,9.83,-0.76,1.03,-0.02,-0.01,-0.05,-26.28,-23.28,1.49
225524,10.26,-1.34,0.53,0.03,-0.06,-0.04,-25.71,-23.25,2.88
225664,9.45,-0.59,0.29,-0.06,0.31,0.11,-26.43,-22.98,3.03
225803,9.34,-1.39,0.73,0.02,0.05,0.05,-26.26,-23.06,2.38
225943,9.47,-1.50,1.16,0.03,-0.06,-0.01,-26.32,-23.19,0.56
226083,9.71,-1.14,0.94,0.06,0.00,-0.07,-25.78,-22.27,2.37
226228,9.26,-1.02,1.13,0.06,-0.06,-0.07,-25.15,-23.30,0.85
226368,9.70,-0.88,-0.18,0.05,-0.28,0.00,-25.71,-24.01,3.07
226507,10.16,-1.37,1.91,-0.02,-0.04,-0.02,-25.39,-22.90,1.30
226647,9.36,-0.92,0.12,-0.02,0.03,0.02,-25.20,-23.72,2.81
226787,9.44,-1.06,0.25,0.05,-0.10,0.04,-24.99,-23.09,3.48
226926,9.82,-1.09,0.44,0.07,-0.22,0.01,-25.67,-23.30,3.45
227066,9.92,-1.29,0.99,0.02,0.02,-0.06,-25.42,-23.09,3.11
227206,9.35,-0.95,0.46,0.02,0.06,0.00,-25.96,-23.02,4.11
227345,9.89,-1.60,1.30,-0.08,0.02,-0.05,-26.91,-22.98,3.42
227491,9.54,-1.18,-0.33,0.10,-0.14,0.02,-26.02,-23.41,4.60
227630,10.15,-0.38,1.65,0.05,-0.02,0.03,-26.22,-24.50,2.73
227770,9.53,-1.46,1.13,-0.11,0.02,0.01,-26.76,-22.93,2.75
227910,9.72,-0.88,-0.33,0.02,-0.22,0.01,-26.26,-23.00,4.79
228049,9.57,-1.21,0.56,-0.00,0.12,0.06,-25.72,-22.81,3.74
228189,9.86,-1.30,0.36,-0.01,-0.19,0.06,-26.00,-22.89,2.78
228329,9.48,-1.42,0.61,-0.07,0.12,0.04,-26.69,-22.30,3.42
228468,10.09,-1.19,1.74,-0.05,0.03,-0.03,-26.24,-22.22,2.35
228614,9.41,-1.25,0.32,-0.01,0.20,0.04,-26.41,-22.70,1.61
228753,9.98,-1.01,0.98,0.04,-0.14,-0.01,-26.72,-22.17,2.85
228893,9.33,-1.31,1.15,-0.09,0.34,-0.05,-26.92,-22.26,0.13
229033,8.87,-1.39,1.87,-0.02,0.23,-0.01,-26.94,-22.42,-2.88
229172,7.87,-1.15,0.18,0.22,-0.17,0.01,-27.17,-22.93,-2.25
229312,6.10,-0.25,0.51,0.63,0.52,-0.16,-26.82,-23.34,-4.97
229452,6.35,-2.16,2.99,0.82,0.77,-2.90,-23.18,-32.91,-8.32
229591,2.57,8.17,-0.69,0.64,0.63,-4.54,-4.43,-53.45,-5.01
229731,-0.34,12.10,5.57,-0.87,2.47,-3.67,20.56,-57.67,-5.51
229876,-4.74,11.35,4.78,0.22,1.18,-3.17,40.65,-49.40,1.48
230016,-11.10,7.08,3.26,0.34,0.85,-2.95,50.20,-39.37,9.09
230156,-8.62,4.17,2.40,-0.53,0.17,-0.51,53.70,-32.17,12.41
230295,-8.93,4.12,5.40,-0.19,-0.08,-0.28,54.60,-30.40,13.83
230435,-9.48,2.84,2.12,-0.92,0.21,0.05,54.36,-31.66,15.46
230575,-8.91,3.36,1.81,-0.09,0.02,-0.10,54.52,-30.90,15.23
230714,-9.20,3.32,2.05,-0.04,0.03,-0.01,54.11,-30.91,16.31
230854,-9.26,2.84,1.41,0.08,-0.07,0.00,54.22,-30.88,16.46
231000,-9.30,3.05,1.28,0.04,0.09,-0.14,54.24,-30.63,16.71
231139,-9.27,2.79,1.58,0.01,0.05,-0.07,54.22,-29.83,17.28
231279,-9.37,2.61,1.36,0.03,-0.03,-0.07,53.70,-33.67,17.70
231418,-9.32,2.80,1.27,0.02,-0.08,0.01,54.11,-29.26,16.52
231558,-9.17,2.87,1.35,0.07,-0.04,0.01,53.90,-29.09,17.30
231698,-9.27,2.62,1.39,0.03,-0.03,-0.02,53.39,-29.04,16.31
231837,-9.13,3.09,1.43,0.05,-0.04,-0.01,54.52,-28.95,17.64
231977,-9.28,2.73,1.38,0.06,-0.04,0.02,54.46,-29.86,17.63
232117,-9.27,2.84,1.33,-0.02,-0.02,0.01,53.48,-29.80,16.69
232262,-9.30,2.69,1.44,-0.03,-0.02,0.01,52.57,-29.80,16.66
232402,-9.29,2.76,1.24,-0.01,-0.04,-0.00,53.24,-30.46,16.91
232541,-9.27,2.84,1.37,-0.03,-0.02,-0.01,53.07,-29.73,16.92
232681,-9.25,2.95,1.43,-0.01,-0.04,0.01,53.52,-29.74,17.57
232821,-9.31,2.89,1.37,-0.01,-0.08,0.02,53.64,-30.11,17.55
232960,-9.24,2.83,1.31,-0.04,-0.05,0.01,52.75,-30.08,16.66
233100,-9.24,2.80,1.44,0.00,-0.05,-0.00,53.04,-30.04,16.65
233240,-9.23,2.94,1.36,0.03,-0.04,-0.00,52.88,-29.44,16.22
233401,-9.23,2.90,1.54,-0.02,-0.04,0.00,52.82,-30.12,17.42
233541,-9.25,2.83,1.34,0.00,-0.07,0.02,52.67,-29.89,15.64
233680,-9.24,2.88,1.37,0.01,-0.05,0.02,53.43,-30.15,16.33
233820,-9.22,3.01,1.51,0.05,-0.02,0.01,53.10,-29.96,16.97
233959,-9.21,2.90,1.52,0.00,-0.03,0.05,52.85,-30.31,16.24
234099,-9.21,2.91,1.43,-0.01,-0.06,0.01,52.92,-30.36,15.86
234239,-9.23,3.05,1.37,0.00,-0.05,0.01,52.72,-29.66,16.05
234378,-9.21,2.93,1.44,0.01,-0.05,0.01,52.76,-29.80,16.00
234518,-9.18,3.12,1.44,-0.01,-0.06,0.01,52.75,-30.02,16.50
234664,-9.21,3.06,1.44,-0.00,-0.05,0.02,53.03,-29.86,16.14
234803,-9.28,2.96,1.47,-0.01,-0.06,0.02,52.54,-30.58,17.06
234943,-9.22,2.95,1.39,-0.02,-0.05,-0.01,53.30,-30.43,15.89
235083,-9.19,3.00,1.64,-0.00,-0.04,-0.01,52.79,-31.25,17.23
235222,-9.15,3.17,1.48,0.00,-0.04,0.00,52.85,-30.96,16.75
235362,-9.04,2.99,1.56,-0.04,-0.06,0.04,52.95,-31.76,16.16
235501,-9.18,3.11,1.56,0.02,-0.04,-0.02,51.78,-30.84,16.81
235641,-9.19,3.02,1.52,0.03,-0.05,0.02,52.60,-31.15,15.74
235781,-9.26,2.99,1.53,0.01,-0.06,0.00,52.60,-30.36,15.86
235926,-9.09,3.40,1.55,-0.07,-0.04,0.07,52.67,-31.19,16.33
236066,-9.15,3.26,1.72,-0.09,-0.02,0.06,51.71,-31.42,16.27
236206,-9.04,3.51,1.67,-0.12,-0.09,0.21,52.31,-32.33,15.33
236345,-9.04,3.46,3.35,-0.38,-0.02,0.05,51.36,-33.54,15.96
236485,-9.08,3.96,5.88,-0.41,-0.66,0.17,51.55,-34.33,11.05
236625,-9.95,4.44,7.77,-0.63,-1.51,0.20,53.26,-36.95,2.78
236764,-9.35,4.35,6.94,-0.84,-2.03,0.14,53.04,-38.09,-11.15
236904,-6.75,2.90,5.44,-0.32,-1.80,0.08,50.44,-39.05,-24.51
237049,-4.35,2.82,7.62,-0.34,-1.52,0.11,44.81,-36.82,-34.79
237189,-2.00,1.91,7.53,0.05,-1.23,0.17,37.85,-37.04,-39.97
237329,-0.46,1.80,7.82,-0.04,-0.74,0.07,31.26,-36.33,-43.58
237468,0.38,1.04,8.18,-0.26,-0.41,0.18,28.22,-34.84,-45.53
237608,0.94,1.23,9.24,-0.05,-0.16,-0.11,26.98,-35.12,-44.65
237748,1.06,1.16,9.16,0.01,-0.12,-0.07,26.50,-34.11,-45.53
237887,1.18,1.46,9.54,-0.01,-0.10,-0.06,27.05,-34.32,-46.93
238027,1.12,1.33,9.74,0.02,-0.02,-0.04,26.37,-34.22,-45.66
238166,1.10,1.50,9.54,-0.00,-0.05,-0.03,26.78,-34.04,-46.16
238312,1.09,1.52,9.65,0.04,-0.05,-0.01,26.83,-33.88,-45.38
238452,1.08,1.51,9.76,0.05,-0.06,-0.00,26.69,-34.07,-45.82
238591,1.01,1.23,9.95,0.06,-0.03,-0.01,26.85,-34.35,-46.46
238731,1.09,1.49,9.70,0.02,-0.04,0.00,26.76,-34.49,-46.52
238876,1.07,1.31,9.87,0.01,-0.03,-0.02,27.02,-34.58,-45.32
239022,1.07,1.41,9.74,0.04,-0.03,-0.01,27.00,-33.79,-45.63
239162,1.07,1.50,9.95,-0.00,-0.04,-0.02,28.21,-34.45,-46.58
239301,1.01,1.52,9.62,0.05,-0.09,-0.01,27.74,-34.33,-47.37
239447,1.05,1.35,9.66,-0.04,-0.02,0.00,26.83,-35.03,-46.29
239586,1.06,1.51,9.82,-0.01,-0.03,0.01,28.14,-34.05,-46.38
239726,1.04,1.23,10.04,0.01,-0.06,-0.01,27.45,-34.36,-46.71
239866,1.06,1.52,9.65,0.01,-0.08,-0.01,26.82,-34.58,-45.98
240005,1.20,1.62,9.84,0.04,-0.03,-0.05,27.39,-33.94,-45.88
240145,1.11,1.49,9.89,0.02,-0.03,-0.03,27.16,-34.01,-47.18
240285,1.02,1.43,9.76,0.01,-0.04,-0.01,27.11,-34.48,-46.42
240424,1.03,1.54,9.75,0.04,-0.03,-0.03,27.39,-33.92,-46.43
240564,1.03,1.47,9.88,0.01,-0.04,-0.00,27.35,-33.76,-46.10
240709,1.05,1.42,9.67,0.02,-0.05,-0.01,27.19,-34.05,-46.61
240849,1.05,1.51,9.73,-0.01,-0.04,-0.00,27.16,-33.69,-46.01
240989,1.07,1.49,9.76,0.01,-0.09,-0.00,26.76,-33.51,-47.12
241128,1.09,1.41,9.68,-0.00,-0.05,-0.00,26.53,-34.00,-46.99
241268,1.16,1.57,9.76,0.05,-0.03,-0.03,26.40,-34.16,-45.60
241408,1.09,1.49,9.72,0.01,-0.03,-0.01,27.49,-34.01,-47.09
241547,1.03,1.41,9.80,0.00,-0.02,0.00,27.90,-34.17,-46.40
241687,1.09,1.57,9.94,-0.00,-0.10,-0.03,27.14,-33.95,-46.00
241833,1.19,1.36,9.74,-0.03,-0.11,0.08,27.05,-34.52,-47.71
241972,1.18,1.39,9.41,0.03,-0.05,-0.03,27.17,-33.84,-46.68
242113,1.11,1.48,9.68,-0.00,-0.11,0.00,26.78,-34.71,-47.22
242252,1.27,1.68,10.14,-0.00,-0.07,-0.02,26.54,-34.39,-46.58
242392,1.47,3.58,9.91,-0.29,-0.21,0.83,25.39,-33.51,-46.95
242532,0.50,1.42,10.77,-0.58,-0.11,2.26,21.25,-29.70,-48.26
242671,0.54,0.26,10.07,0.33,-0.47,2.45,16.15,-27.64,-48.36
242811,0.18,1.07,9.50,0.64,-0.28,2.88,12.82,-26.88,-47.05
242951,-1.11,-0.73,8.33,-0.67,0.42,3.49,9.89,-22.41,-46.74
243096,-3.86,-2.27,9.39,-0.38,0.20,3.85,13.69,-13.80,-47.09
243236,-4.59,-4.87,11.10,0.29,-0.73,2.57,16.24,-12.44,-46.77
243375,-2.00,-1.06,9.42,-0.27,-0.78,1.41,12.19,-12.01,-46.45
243515,-1.05,-4.79,10.49,-0.61,0.03,0.98,9.91,-8.48,-43.60
243655,-0.90,-3.27,9.67,-0.40,-0.22,0.62,10.70,-2.95,-40.65
243794,-0.49,-3.34,9.48,0.12,0.06,0.27,11.21,-2.22,-41.93
243934,-0.66,-2.87,9.54,0.73,0.01,0.26,11.94,-3.73,-43.28
244074,-0.76,-2.97,9.67,-0.10,-0.06,0.08,12.92,-4.14,-42.69
244219,-0.81,-3.07,9.02,-0.30,-0.18,0.31,12.12,-3.48,-42.43
244359,-0.78,-3.02,9.28,0.13,-0.18,0.02,13.07,-2.48,-42.34
244499,-0.73,-3.09,9.65,0.14,0.02,0.02,12.70,-3.51,-41.67
244638,-0.76,-2.85,9.60,0.09,-0.06,0.01,12.93,-3.45,-42.30
244778,-0.73,-2.65,9.55,0.11,-0.08,0.03,12.93,-4.33,-43.04
244917,-0.80,-2.63,9.38,0.04,-0.01,0.04,13.04,-5.13,-42.72
245057,-0.90,-2.90,9.17,-0.06,-0.07,0.00,13.42,-4.68,-42.12
245197,-0.84,-2.48,9.39,-0.01,-0.04,0.02,12.74,-5.03,-43.42
245336,-0.76,-2.34,9.66,-0.07,-0.05,0.03,13.43,-5.07,-43.74
245482,-0.83,-2.57,9.45,0.05,-0.08,-0.02,13.33,-4.56,-43.13
245622,-0.80,-2.57,9.55,-0.00,-0.07,0.01,13.02,-4.66,-43.48
245761,-0.80,-2.63,9.51,-0.04,-0.09,-0.01,12.83,-5.58,-43.04
245901,-0.71,-2.59,9.59,0.09,-0.07,0.00,12.42,-5.22,-43.04
246041,-0.69,-2.51,9.56,-0.05,-0.03,0.02,12.22,-5.00,-43.89
246180,-0.77,-2.62,9.51,0.03,-0.05,-0.02,12.44,-4.93,-43.64
246320,-0.70,-2.42,9.59,0.02,-0.05,-0.00,12.67,-5.26,-42.81
246459,-0.65,-2.50,9.58,-0.03,-0.06,0.01,12.82,-5.33,-42.90
246605,-0.76,-2.68,9.65,-0.03,-0.05,0.02,12.38,-4.88,-43.86
246745,-0.63,-2.29,9.59,-0.04,-0.05,-0.01,12.50,-5.19,-42.98
246884,-0.63,-2.36,9.46,-0.00,-0.05,-0.02,13.52,-4.90,-43.44
247024,-0.64,-2.45,9.61,0.00,-0.05,-0.01,12.31,-5.17,-44.56
247164,-0.63,-2.36,9.51,-0.04,-0.04,0.00,12.64,-5.25,-44.15
247303,-0.62,-2.39,9.60,0.01,-0.06,-0.01,12.85,-5.95,-44.17
247443,-0.66,-2.43,9.67,-0.04,-0.04,0.02,13.17,-5.93,-44.43
247583,-0.61,-2.37,9.59,0.04,-0.06,0.00,12.55,-5.42,-44.62
247728,-0.61,-2.33,9.75,0.13,-0.07,-0.02,11.90,-5.29,-44.23
247868,-0.61,-2.31,9.70,0.03,-0.05,0.02,12.67,-5.63,-44.18
248007,-0.61,-2.39,9.78,0.02,-0.03,0.01,12.63,-5.32,-44.96
248147,-0.65,-2.26,9.76,0.04,-0.05,0.00,12.55,-5.45,-44.20
248287,-0.53,-2.26,9.75,0.05,-0.04,-0.01,11.65,-6.17,-44.62
248426,-0.70,-2.24,9.78,0.01,-0.04,0.00,12.38,-5.66,-44.65
248566,-0.62,-2.22,9.71,-0.00,-0.05,-0.02,12.50,-5.55,-44.99
248706,-0.73,-2.31,9.62,0.06,-0.07,-0.03,13.07,-6.66,-44.26
248845,-0.58,-2.31,9.65,0.02,-0.06,-0.02,11.78,-6.85,-45.10
248991,-0.66,-2.26,9.70,0.01,-0.06,-0.02,11.75,-6.39,-44.99
249130,-1.94,-3.92,7.80,0.91,-0.22,-0.96,11.58,-8.05,-44.20
249270,-1.85,-1.23,5.90,2.37,-0.47,-2.57,10.44,-22.93,-45.02
249410,-2.62,0.15,9.12,1.15,-0.36,-3.35,16.54,-34.95,-40.35
249549,-3.42,10.60,7.68,4.28,-0.37,-4.72,24.88,-43.50,-24.32
249689,-7.14,8.48,5.44,3.59,-0.73,-3.30,33.06,-47.53,-11.46
249829,-9.39,9.66,3.48,2.87,-0.58,-2.88,43.70,-44.53,-2.84
249968,-7.45,5.93,5.34,1.48,0.35,-0.37,48.66,-40.08,5.19
250114,-8.55,4.69,3.85,0.28,0.26,-0.35,49.56,-37.83,9.65
250253,-8.42,4.48,3.74,0.64,-0.06,-0.12,50.35,-36.88,12.57
250393,-8.49,4.06,2.45,-0.09,-0.11,-0.09,50.61,-36.17,11.43
250533,-8.82,3.50,1.87,-0.01,0.02,-0.03,51.04,-36.36,11.77
250672,-8.57,4.26,2.67,-0.28,0.07,-0.04,51.02,-37.12,11.77
250812,-8.66,3.80,2.61,-0.07,-0.03,0.03,50.69,-36.73,14.92
250952,-8.62,3.86,2.45,0.06,-0.05,-0.02,51.32,-37.28,11.37
251091,-8.67,3.48,2.53,0.13,-0.04,-0.03,51.15,-37.42,12.07
251231,-8.66,3.84,2.51,0.10,-0.08,-0.03,51.37,-37.11,12.63
251376,-8.64,3.81,2.32,-0.01,-0.08,0.01,51.18,-37.39,11.25
251516,-8.64,3.81,2.51,-0.04,-0.02,0.01,51.45,-36.70,12.31
251656,-8.65,3.77,2.52,0.01,-0.03,0.00,51.32,-36.88,12.41
251795,-8.63,3.88,2.56,0.02,-0.04,-0.02,50.98,-37.39,10.70
251935,-8.60,3.95,2.44,-0.00,-0.04,-0.02,50.88,-37.49,12.10
252075,-8.58,3.92,2.41,-0.01,-0.04,0.00,50.98,-37.01,11.97
252214,-8.72,3.86,2.60,0.01,-0.04,-0.01,50.95,-37.14,12.15
252354,-8.68,3.89,2.67,0.03,-0.08,-0.00,51.36,-37.02,11.27
252515,-8.63,3.82,2.35,-0.03,-0.10,-0.02,51.27,-37.39,11.84
252655,-8.61,3.86,2.47,-0.02,-0.03,-0.02,51.61,-37.47,10.77
252794,-8.65,3.77,2.73,0.03,-0.04,-0.01,51.20,-36.93,12.16
252934,-8.58,3.79,2.73,-0.00,-0.05,-0.02,50.88,-36.90,10.80
253074,-8.58,3.75,2.48,0.01,-0.03,-0.02,51.68,-37.58,11.63
253213,-8.61,3.76,2.60,0.02,-0.03,0.00,52.12,-36.85,12.63
253353,-8.65,3.75,2.67,0.02,-0.04,0.01,51.36,-37.47,11.15
253493,-8.64,3.77,2.51,0.03,-0.03,-0.00,51.40,-37.12,11.74
253632,-8.65,3.89,2.69,0.01,-0.01,-0.02,51.59,-37.59,12.12
253778,-8.76,3.80,2.62,0.01,-0.05,0.03,51.33,-36.71,12.25
253917,-8.68,3.69,2.41,0.05,0.03,-0.15,51.37,-37.05,12.03
254057,-8.74,3.71,2.65,-0.02,-0.05,0.01,51.62,-36.80,12.73
254197,-8.86,3.55,2.32,-0.02,-0.08,-0.16,52.32,-36.89,11.90
254336,-8.77,3.46,2.47,0.05,-0.05,-0.02,51.78,-36.52,11.97
254476,-8.76,3.57,2.54,0.02,-0.03,-0.06,51.80,-37.04,14.79
254616,-8.89,3.23,2.32,0.01,-0.06,-0.03,51.97,-36.47,12.35
254755,-8.91,3.14,2.41,-0.00,-0.03,-0.09,51.86,-36.95,12.25
254901,-8.87,3.43,2.50,-0.03,-0.02,-0.05,52.32,-35.75,11.15
255041,-8.90,3.68,2.62,-0.07,-0.06,0.09,51.87,-36.57,12.54
255180,-9.23,5.97,3.26,-0.89,-0.19,1.24,50.38,-39.46,10.20
255320,-9.22,7.68,3.65,-3.02,-0.26,2.33,43.44,-45.06,0.95
255459,-6.89,7.64,6.58,-2.41,-0.27,3.33,32.07,-45.86,-12.29
255599,-4.43,5.67,5.60,-1.68,-0.18,2.99,26.07,-41.10,-23.14
255745,-2.10,3.00,6.87,-1.48,0.06,2.77,22.05,-38.97,-34.98
255884,-0.66,1.53,8.39,-1.59,-0.03,2.12,14.89,-31.77,-43.34
256024,-0.01,-0.63,8.25,-0.60,-0.44,1.66,8.29,-22.07,-45.35
256169,0.39,-2.42,8.29,-0.21,-0.44,0.90,4.36,-17.35,-43.83
256309,0.94,-2.06,10.16,-0.23,0.07,0.06,4.46,-14.95,-44.20
256449,1.12,-1.04,10.09,0.02,0.03,0.03,5.47,-14.45,-44.49
256588,1.06,-1.35,9.62,-0.23,0.11,-0.04,6.07,-14.19,-44.59
256728,0.51,-1.48,9.87,0.02,0.02,0.01,5.89,-13.72,-44.99
256868,0.98,-1.04,9.79,0.16,-0.16,-0.03,6.17,-13.86,-44.90
257007,0.96,-1.03,9.96,0.03,-0.03,-0.02,5.54,-14.47,-44.39
257147,1.15,-1.18,9.90,0.06,-0.03,-0.00,5.45,-14.95,-44.77
257292,1.01,-0.91,9.86,0.01,-0.02,0.05,5.96,-14.98,-44.31
257432,0.98,-1.18,9.84,-0.07,-0.04,-0.06,5.55,-14.56,-43.61
257572,1.12,-1.05,9.93,-0.22,0.07,-0.08,5.90,-14.21,-44.46
257711,0.62,-1.38,9.67,-0.19,0.17,0.09,7.66,-11.82,-44.90
257851,0.39,-1.65,9.91,-0.18,0.05,0.07,8.24,-11.62,-45.03
257991,0.05,-2.26,9.12,-0.22,0.13,-0.06,9.78,-8.13,-45.31
258130,0.03,-2.39,9.00,-0.05,-0.07,-0.04,9.40,-8.45,-46.08
258270,0.30,-2.00,9.84,0.35,-0.02,0.11,9.94,-8.86,-44.78
258410,0.06,-1.84,9.06,0.17,-0.07,-0.09,9.66,-9.91,-44.91
258555,0.26,-1.91,10.21,0.03,-0.25,-0.12,9.35,-11.43,-45.60
258695,0.52,-1.70,9.47,0.05,-0.13,-0.13,7.75,-11.44,-44.69
258834,0.62,-1.33,9.56,0.13,-0.10,-0.08,7.45,-11.12,-45.22
258974,0.62,-1.45,9.94,0.11,-0.01,-0.01,8.11,-12.41,-45.22
259114,0.50,-1.54,9.75,0.14,-0.02,-0.05,7.53,-13.14,-44.94
259253,0.61,-1.32,9.55,0.01,-0.07,0.02,7.04,-13.37,-44.96
259393,0.54,-1.28,9.80,0.03,-0.05,-0.04,7.72,-13.84,-45.12
259533,0.55,-1.30,9.90,0.08,-0.07,-0.03,7.59,-13.34,-45.64
259672,0.69,-1.22,10.07,-0.02,-0.06,0.02,11.11,-13.48,-45.79
259818,0.70,-1.22,9.35,0.04,-0.05,0.06,7.60,-13.20,-45.37
259958,0.65,-1.23,10.11,-0.03,-0.08,0.05,7.26,-13.18,-46.54
260097,0.76,-1.16,9.61,0.02,-0.05,0.00,7.29,-12.74,-45.83
260237,0.76,-1.23,9.98,0.06,-0.03,-0.01,7.60,-13.02,-45.54
260376,0.68,-1.31,9.91,0.07,-0.03,0.01,7.57,-13.05,-45.02
260516,0.66,-1.16,9.90,0.05,-0.04,-0.01,7.88,-13.74,-44.80
260656,0.70,-1.22,9.72,0.00,-0.06,-0.01,7.98,-14.25,-45.78
260795,0.72,-1.23,9.84,0.04,-0.05,0.01,6.97,-14.54,-45.51
260941,0.67,-1.34,9.66,0.01,-0.07,0.04,4.14,-13.86,-44.67
261081,0.62,-1.25,9.87,0.04,-0.02,-0.01,7.70,-14.18,-45.76
261220,0.65,-1.14,9.82,0.03,-0.04,-0.00,8.02,-13.40,-44.93
261360,0.73,-1.12,10.06,0.04,-0.04,-0.02,8.04,-14.24,-45.18
261500,0.67,-1.26,9.79,0.04,-0.06,-0.04,7.22,-14.35,-45.82
261639,0.49,-1.86,10.25,-0.05,-0.17,-0.30,7.72,-14.69,-45.57
261779,0.09,-4.31,8.80,0.32,-0.20,-1.36,5.79,-17.16,-43.98
261918,-0.78,-1.43,9.59,-0.27,-0.07,-2.41,7.19,-21.40,-47.37
262058,-0.02,0.80,10.06,0.40,0.09,-2.46,9.60,-23.98,-46.64
262204,0.42,0.28,10.52,-0.21,0.12,-2.02,11.82,-25.14,-45.12
262343,0.51,-0.49,10.05,-0.91,-0.01,-1.39,13.15,-24.58,-44.45
262483,0.57,2.58,9.49,-0.35,-0.09,-0.87,13.97,-25.88,-45.03
262623,0.84,0.59,9.98,0.04,0.01,0.01,13.94,-25.87,-43.66
262762,1.03,-0.15,9.66,0.16,-0.06,0.11,13.48,-26.72,-43.70
262902,0.94,-0.14,10.55,-0.14,-0.02,0.15,13.74,-26.82,-43.00
263041,1.02,-0.63,9.36,-0.02,-0.12,0.14,13.43,-25.64,-42.28
263181,0.90,-0.57,10.10,-0.06,0.00,0.05,13.86,-26.06,-43.55
263327,0.87,-0.57,9.67,0.00,-0.04,0.03,13.26,-25.55,-44.97
263466,0.89,-0.68,9.74,0.04,0.01,-0.00,13.75,-24.73,-43.82
263606,0.69,-0.50,9.90,0.09,-0.05,-0.02,13.78,-25.74,-44.12
263746,0.85,-0.40,10.05,0.05,-0.12,-0.04,13.31,-25.43,-44.04
263885,1.14,-0.36,9.52,0.01,-0.07,-0.02,13.45,-26.18,-44.05
264025,0.85,-0.15,9.94,0.05,-0.08,0.02,13.23,-25.64,-43.32
264165,1.14,-0.35,10.28,0.03,-0.02,0.02,13.48,-25.84,-44.04
264304,0.91,-0.37,9.77,0.09,-0.18,0.02,12.82,-26.73,-44.26
264450,1.16,-0.38,9.63,0.03,-0.03,-0.06,12.42,-26.75,-43.28
264589,0.99,-0.15,10.11,-0.04,-0.06,0.05,13.52,-25.96,-43.42
264729,1.11,-0.41,9.71,0.02,-0.00,-0.01,12.66,-22.52,-43.69
264869,1.10,-0.28,9.98,-0.01,-0.08,0.02,13.37,-25.68,-43.99
265008,1.03,-0.37,9.82,0.02,-0.04,0.03,13.12,-25.75,-43.09
265148,1.03,-0.53,9.84,0.01,-0.05,0.02,12.80,-25.48,-43.73
265288,1.03,-0.41,9.92,0.00,-0.04,0.01,13.88,-25.90,-43.80
265427,1.11,-0.44,9.96,0.02,-0.06,-0.01,12.95,-25.74,-43.34
265568,1.02,-0.29,9.77,0.02,-0.06,0.00,13.10,-25.40,-43.95
265713,1.04,-0.39,9.83,0.03,-0.03,-0.00,12.66,-25.91,-44.01
265853,1.04,-0.35,9.93,0.03,-0.04,0.01,13.36,-26.41,-43.66
265993,1.03,-0.39,10.00,0.00,-0.07,-0.01,12.99,-25.30,-43.86
266132,1.02,-0.36,9.90,-0.00,-0.02,0.00,13.64,-25.23,-44.40
266272,1.03,-0.36,9.93,-0.01,-0.05,0.00,12.96,-25.48,-43.58
266412,1.04,-0.40,9.73,0.04,-0.06,-0.03,12.64,-25.64,-43.01
266551,1.06,-0.39,9.91,0.02,-0.04,0.01,13.15,-25.53,-44.36
266691,1.00,-0.27,9.84,0.03,-0.05,-0.01,13.17,-26.22,-43.12
266836,1.02,-0.37,9.94,0.02,-0.03,-0.03,13.26,-25.91,-43.50
266976,0.98,-0.26,10.11,-0.00,-0.04,-0.01,13.11,-26.10,-42.27
267116,0.88,-0.21,9.98,-0.02,-0.11,0.03,13.61,-26.24,-43.04
267255,1.04,-0.34,9.78,-0.01,-0.02,-0.02,12.64,-25.61,-43.13
267395,1.01,-0.46,10.19,-0.07,0.01,0.03,13.62,-25.71,-43.73
267535,0.94,-0.56,9.56,-0.02,-0.03,0.02,13.56,-25.29,-44.12
267674,0.84,-0.54,9.92,-0.04,0.02,0.01,13.68,-24.92,-44.21
267814,0.70,-0.76,9.67,-0.05,0.04,0.00,13.65,-25.24,-44.36
267954,0.76,-0.73,10.22,-0.03,-0.00,-0.04,14.41,-24.29,-44.46
268099,0.62,-0.87,9.64,0.01,-0.11,0.04,14.10,-24.20,-44.45
268239,0.59,-0.82,9.85,-0.01,-0.00,0.01,14.26,-24.74,-43.96
268378,0.47,-0.79,10.28,0.03,-0.10,0.02,14.40,-23.97,-44.52
268518,0.66,-0.86,13.30,1.19,-0.87,0.09,12.01,-27.43,-43.83
268658,2.35,0.66,10.76,0.21,-2.40,0.15,0.18,-30.84,-39.07
268797,4.73,0.31,6.17,-0.17,-2.82,0.13,-14.05,-30.55,-29.68
268937,7.40,0.55,3.81,-0.11,-2.18,0.13,-21.79,-30.14,-17.03
269077,8.91,0.61,2.56,-0.42,-1.65,0.07,-23.87,-28.91,-6.74
269222,8.76,-0.12,-1.49,-0.00,-1.71,0.14,-23.95,-28.09,4.38
269362,9.32,-0.34,-2.92,-0.19,-0.38,0.07,-18.96,-27.76,8.45
269501,10.07,0.08,-1.18,-0.50,0.13,0.19,-22.80,-27.99,7.99
269641,9.28,-0.66,-1.55,-0.18,-0.21,0.16,-22.81,-27.16,7.97
269781,9.59,-0.47,-1.43,0.00,-0.03,-0.03,-23.57,-27.11,8.01
269920,9.77,-0.50,-1.27,-0.00,-0.09,0.01,-23.00,-27.86,7.63
270060,9.63,-0.40,-1.26,0.01,-0.02,0.01,-22.81,-27.08,9.02
270200,9.53,-0.65,-1.46,-0.04,-0.01,-0.01,-22.96,-27.29,8.99
270339,9.68,-0.29,-1.11,-0.05,0.04,-0.01,-23.06,-27.86,8.48
270485,9.68,-0.50,-1.07,0.08,-0.05,0.00,-23.75,-27.40,7.88
270625,9.77,-0.49,-0.90,-0.00,0.02,-0.00,-23.52,-26.97,7.95
270764,9.71,-0.43,-1.20,0.00,-0.07,0.03,-23.62,-27.39,7.31
270904,9.54,-0.54,-1.41,0.03,0.00,-0.01,-23.18,-26.66,8.14
271043,9.76,-0.52,-0.86,0.04,0.00,-0.01,-23.68,-26.94,4.19
271183,9.71,-0.43,-1.10,-0.00,-0.01,0.01,-23.90,-26.98,7.40
271323,9.69,-0.61,-0.91,0.01,0.00,0.03,-24.09,-26.64,6.50
271462,9.73,-0.63,-0.72,0.01,-0.00,0.01,-23.84,-27.32,6.80
271624,9.83,-0.60,-0.61,0.03,0.02,-0.04,-23.90,-26.48,5.33
271763,9.96,-0.35,-0.43,0.03,0.02,0.04,-24.52,-26.59,5.55
271903,9.47,-0.73,-0.42,0.03,-0.02,0.09,-24.64,-25.61,5.17
272042,9.85,-0.87,-0.45,-0.08,-0.01,-0.01,-24.26,-26.16,5.76
272182,9.76,-0.65,-0.93,0.04,-0.08,0.02,-24.55,-25.67,5.04
272322,9.69,-0.71,-0.38,0.05,0.06,0.05,-24.80,-25.07,4.95
272461,9.63,-1.12,-0.35,0.04,-0.11,0.05,-24.73,-24.99,4.53
272607,9.65,-0.89,-0.58,-0.02,-0.02,-0.05,-24.20,-24.57,5.13
272747,9.79,-0.74,-0.48,0.02,-0.03,-0.02,-25.15,-25.26,5.95
272892,9.74,-0.91,-0.57,-0.00,-0.03,-0.00,-24.28,-24.69,4.63
273032,9.69,-0.82,-0.57,0.01,-0.01,0.01,-24.36,-25.11,3.89
273171,9.61,-0.92,-0.40,0.00,0.03,0.02,-24.99,-25.20,4.22
273311,9.74,-0.92,-0.35,-0.00,0.03,-0.01,-25.04,-25.17,4.63
273451,9.65,-0.98,0.10,-0.03,0.04,0.04,-24.98,-24.82,2.25
273590,9.61,-1.15,-0.03,-0.02,-0.01,-0.03,-25.49,-24.86,2.94
273730,9.72,-0.84,-0.02,-0.06,0.04,-0.07,-24.82,-25.08,2.40
273870,9.89,-2.25,-0.40,-0.22,0.16,-0.31,-24.83,-26.48,0.76
274015,9.34,-1.38,0.43,-0.48,0.36,-0.97,-24.06,-31.19,-1.80
274155,8.57,0.86,1.76,-0.93,0.33,-1.59,-20.04,-39.14,-6.30
274294,7.50,4.13,1.45,-1.18,0.77,-1.79,-13.01,-47.09,-12.70
274434,6.10,6.15,6.52,-1.57,1.19,-1.48,-2.60,-50.56,-24.52
274580,4.37,4.32,7.58,-2.31,1.27,-0.69,7.29,-46.02,-37.27
274719,2.41,2.45,9.09,-1.49,1.14,-0.78,16.24,-37.72,-43.93
274859,2.36,3.55,11.24,-0.00,0.63,-0.65,24.52,-34.62,-45.40
274999,1.27,1.33,10.06,0.07,0.12,-0.40,26.69,-34.73,-45.35
275144,1.36,2.55,9.70,-0.07,-0.23,0.06,27.46,-34.16,-41.17
275284,1.49,2.36,9.33,-0.05,-0.09,0.17,26.83,-34.23,-45.31
275423,1.48,1.64,9.73,-0.22,-0.02,0.13,25.96,-33.32,-46.19
275563,1.46,1.36,9.72,-0.00,-0.01,0.05,25.84,-32.87,-45.82
275703,1.48,1.32,9.65,-0.06,-0.02,0.08,25.90,-32.29,-46.78
275842,1.71,2.05,9.49,-0.07,-0.09,0.27,25.30,-32.42,-45.98
275982,1.54,1.17,9.14,0.22,-0.12,-0.04,24.42,-33.69,-46.21
276122,1.66,1.51,9.60,0.08,-0.05,0.05,25.37,-33.10,-44.64
276261,1.60,1.24,9.85,0.01,0.02,-0.01,25.62,-34.24,-45.82
276407,1.57,1.26,9.63,0.05,-0.01,-0.00,24.52,-34.20,-45.89
276546,1.54,1.32,9.59,-0.07,-0.02,0.05,25.17,-32.94,-45.43
276686,1.59,1.57,10.01,0.04,-0.03,-0.07,25.67,-33.62,-45.40
276826,1.53,1.58,9.85,0.03,-0.03,0.00,24.88,-33.51,-45.31
276965,1.39,1.15,9.59,0.00,-0.05,0.12,25.71,-33.47,-45.19
277105,1.44,1.37,9.92,0.04,-0.06,0.06,25.59,-33.97,-45.92
277245,1.44,1.30,9.77,0.05,-0.06,-0.02,24.89,-33.76,-45.82
277384,1.51,1.40,9.77,0.01,-0.05,-0.02,25.58,-33.22,-46.43
277524,1.51,1.42,9.54,-0.02,-0.05,0.01,24.29,-33.44,-46.67
277669,1.54,1.33,9.68,-0.00,-0.05,0.01,24.95,-34.08,-46.19
277809,1.57,1.37,9.93,-0.01,-0.03,0.00,25.11,-33.22,-46.26
277949,1.53,1.53,9.68,-0.00,-0.05,-0.01,25.14,-33.54,-46.59
278088,1.56,1.26,9.87,-0.01,-0.13,-0.01,24.39,-33.12,-46.24
278228,1.60,1.26,9.48,0.02,-0.07,0.02,24.41,-33.08,-46.40
278368,1.66,1.41,9.66,-0.00,-0.03,-0.01,24.47,-33.60,-46.76
278507,1.65,1.43,9.86,0.01,-0.01,-0.01,25.05,-29.95,-46.64
278647,1.55,1.40,9.48,0.04,-0.07,0.01,24.36,-33.32,-45.54
278792,1.43,1.31,8.88,0.09,0.00,-0.05,24.63,-34.05,-45.64
278932,0.91,1.53,8.33,0.18,0.40,-0.07,26.40,-35.31,-44.53
279072,-0.12,2.01,8.48,0.09,0.69,-0.13,30.75,-35.98,-43.55
279211,-0.96,2.19,8.87,0.82,0.21,0.37,34.39,-38.07,-40.95
279351,-2.04,3.50,8.87,0.01,0.99,-0.13,37.94,-39.67,-37.31
279491,-3.94,2.65,8.62,0.15,1.55,-0.13,44.29,-40.12,-30.21
279630,-5.21,3.50,9.10,0.29,1.32,-0.01,48.47,-39.80,-20.46
279770,-6.83,2.91,7.60,0.05,1.40,-0.07,50.70,-39.46,-14.06
279910,-6.83,3.42,8.51,0.09,0.93,0.09,52.05,-39.17,-5.31
280055,-7.68,3.31,6.08,0.45,0.46,-0.10,51.68,-39.33,0.23
280195,-7.81,4.55,4.80,0.50,0.27,-0.17,52.48,-37.62,4.09
280334,-8.16,4.17,3.29,0.58,0.53,0.03,51.97,-36.57,8.54
280474,-8.09,5.07,4.32,0.01,-0.05,-0.04,51.13,-36.69,9.46
280614,-8.26,4.20,2.97,-0.16,-0.14,0.09,51.24,-37.94,9.85
280753,-8.24,4.08,2.85,-0.02,-0.02,-0.02,50.96,-37.58,8.70
280893,-8.24,4.41,2.99,-0.12,0.07,-0.09,50.89,-37.28,9.00
281033,-8.26,4.34,3.35,-0.02,0.06,-0.06,51.34,-37.18,10.49
281178,-8.43,4.13,2.72,0.22,0.15,-0.08,51.08,-37.04,11.17
281318,-8.55,3.98,2.38,-0.03,0.20,-0.09,50.56,-35.93,11.88
281458,-8.65,3.88,2.28,-0.01,0.07,-0.06,50.50,-35.79,12.76
281597,-8.71,3.90,2.25,-0.04,0.01,-0.02,50.20,-36.00,12.73
281737,-8.62,3.86,2.25,0.02,-0.04,0.01,49.97,-35.55,12.77
281876,-8.69,3.84,2.22,-0.01,0.01,0.03,49.74,-35.55,12.70
282016,-8.67,3.94,2.54,0.06,-0.01,0.03,50.70,-36.06,13.26
282156,-8.66,3.85,2.29,0.00,-0.07,0.02,50.07,-35.93,12.51
282295,-8.76,3.77,2.07,0.02,-0.06,0.01,50.58,-35.63,12.96
282441,-8.68,3.90,2.24,0.01,-0.03,-0.07,51.11,-35.87,12.60
282581,-8.70,4.13,2.15,-0.01,-0.03,-0.04,50.82,-36.13,12.41
282720,-8.71,3.97,2.21,0.03,-0.05,0.03,50.35,-35.93,13.21
282860,-8.86,3.84,2.11,0.05,-0.06,0.05,50.66,-35.79,12.60
283000,-8.71,3.86,2.31,-0.03,-0.11,0.01,50.51,-36.58,13.10
283139,-8.64,3.95,1.91,-0.01,-0.05,-0.01,50.25,-35.76,13.07
283279,-8.62,3.96,2.31,-0.03,0.01,-0.02,49.93,-35.25,13.43
283418,-8.82,4.13,2.56,0.06,-0.04,0.00,49.90,-35.27,13.15
283558,-8.54,3.78,2.15,-0.07,-0.15,-0.01,49.99,-36.44,11.88
283704,-8.56,4.04,1.87,-0.05,-0.01,-0.04,49.91,-36.32,13.34
283843,-8.63,3.98,2.38,-0.03,0.05,-0.00,49.99,-35.78,13.20
283983,-8.71,3.86,2.58,-0.02,-0.02,0.04,50.34,-36.70,12.80
284123,-8.68,3.82,2.22,-0.05,-0.04,0.01,50.09,-37.05,13.12
284262,-8.68,3.77,2.25,-0.00,-0.04,-0.00,50.28,-37.62,12.63
284402,-8.63,3.97,2.35,-0.03,-0.04,-0.03,50.48,-36.45,12.39
284541,-8.53,3.98,2.49,-0.03,-0.03,-0.00,50.76,-36.77,11.71
284681,-8.71,3.66,2.28,-0.02,-0.05,0.04,50.53,-37.39,11.37
284827,-8.69,3.71,2.40,-0.05,-0.03,0.04,50.15,-37.81,12.22
284966,-8.58,4.15,2.66,-0.29,0.01,0.00,51.11,-37.97,10.98
285106,-8.46,4.26,3.66,-0.46,-0.06,0.10,50.69,-38.53,10.58
285246,-8.55,4.53,2.46,-0.45,-0.14,0.29,50.00,-39.65,8.24
285386,-8.51,6.45,4.18,-2.45,0.19,1.15,47.22,-44.20,4.34
285526,-8.63,6.81,5.60,-3.02,-0.69,1.88,40.44,-47.11,-8.61
285666,-6.95,6.35,8.28,-2.58,-0.83,2.91,30.55,-41.51,-21.81
285805,-4.17,3.63,8.11,-1.81,-0.73,3.22,25.87,-35.30,-31.98
285945,-2.09,2.10,6.65,-1.71,-0.72,2.65,21.19,-29.99,-40.97
286090,-0.76,-0.26,8.47,-0.91,-0.42,1.07,13.52,-21.85,-46.80
286230,-0.06,-1.16,9.24,-0.30,-0.53,0.70,9.85,-18.46,-46.23
286370,0.25,-0.75,9.77,-0.36,-0.02,0.25,9.12,-16.47,-45.59
286509,0.26,-1.36,8.46,-0.14,0.07,0.27,9.15,-13.68,-45.53
286649,0.04,-2.02,9.94,-0.22,-0.07,-0.02,9.81,-12.63,-45.63
286789,-0.10,-2.30,10.10,-0.13,0.19,-0.04,10.79,-12.04,-45.02
286928,-0.18,-1.86,9.71,-0.01,0.23,0.04,11.62,-10.73,-45.50
287068,-0.45,-2.21,10.29,-0.08,0.06,0.07,12.73,-11.65,-45.67
287213,-0.81,-2.96,8.79,-0.16,-0.13,0.01,13.23,-10.20,-45.10
287353,-0.48,-2.45,9.60,0.01,-0.13,0.25,12.64,-10.11,-45.21
287493,-0.37,-2.60,9.37,0.18,-0.35,0.19,11.47,-11.01,-44.80
287632,-0.34,-2.33,9.81,0.12,-0.09,0.05,10.83,-10.06,-44.08
287772,-0.02,-2.04,10.28,0.09,-0.14,0.06,10.48,-10.82,-41.26
287912,-0.01,-1.77,9.24,-0.15,-0.11,-0.01,9.69,-9.72,-44.37
288051,0.24,-2.02,9.79,0.10,-0.15,-0.00,9.59,-10.49,-44.07
288191,0.40,-2.16,9.97,0.34,-0.17,0.16,8.59,-11.58,-44.84
288336,-0.00,-1.37,9.93,0.01,-0.05,0.13,8.16,-11.60,-41.36
288476,0.25,-1.33,10.27,0.08,0.08,0.10,9.50,-12.13,-46.05
